Created as New Dataset,Sample 003 By Administrator Date Tuesday, October 14 2025
cm-1,A
4000.00,0.0053
3999.00,0.0054
3998.00,0.0054
3997.00,0.0055
3996.00,0.0054
3995.00,0.0054
3994.00,0.0054
3993.00,0.0054
3992.00,0.0053
3991.00,0.0053
3990.00,0.0053
3989.00,0.0053
3988.00,0.0053
3987.00,0.0053
3986.00,0.0053
3985.00,0.0053
3984.00,0.0053
3983.00,0.0053
3982.00,0.0053
3981.00,0.0054
3980.00,0.0054
3979.00,0.0054
3978.00,0.0054
3977.00,0.0054
3976.00,0.0054
3975.00,0.0054
3974.00,0.0054
3973.00,0.0053
3972.00,0.0054
3971.00,0.0054
3970.00,0.0054
3969.00,0.0054
3968.00,0.0054
3967.00,0.0054
3966.00,0.0055
3965.00,0.0055
3964.00,0.0055
3963.00,0.0054
3962.00,0.0054
3961.00,0.0054
3960.00,0.0054
3959.00,0.0054
3958.00,0.0053
3957.00,0.0053
3956.00,0.0053
3955.00,0.0054
3954.00,0.0054
3953.00,0.0054
3952.00,0.0054
3951.00,0.0054
3950.00,0.0054
3949.00,0.0054
3948.00,0.0053
3947.00,0.0053
3946.00,0.0053
3945.00,0.0052
3944.00,0.0052
3943.00,0.0053
3942.00,0.0053
3941.00,0.0053
3940.00,0.0053
3939.00,0.0053
3938.00,0.0053
3937.00,0.0054
3936.00,0.0053
3935.00,0.0053
3934.00,0.0053
3933.00,0.0053
3932.00,0.0053
3931.00,0.0053
3930.00,0.0054
3929.00,0.0054
3928.00,0.0054
3927.00,0.0053
3926.00,0.0053
3925.00,0.0053
3924.00,0.0054
3923.00,0.0054
3922.00,0.0053
3921.00,0.0053
3920.00,0.0053
3919.00,0.0054
3918.00,0.0053
3917.00,0.0053
3916.00,0.0054
3915.00,0.0053
3914.00,0.0053
3913.00,0.0053
3912.00,0.0053
3911.00,0.0053
3910.00,0.0052
3909.00,0.0052
3908.00,0.0052
3907.00,0.0052
3906.00,0.0052
3905.00,0.0052
3904.00,0.0052
3903.00,0.0052
3902.00,0.0053
3901.00,0.0053
3900.00,0.0053
3899.00,0.0053
3898.00,0.0053
3897.00,0.0052
3896.00,0.0052
3895.00,0.0052
3894.00,0.0052
3893.00,0.0051
3892.00,0.0050
3891.00,0.0050
3890.00,0.0051
3889.00,0.0052
3888.00,0.0051
3887.00,0.0051
3886.00,0.0051
3885.00,0.0052
3884.00,0.0053
3883.00,0.0052
3882.00,0.0051
3881.00,0.0051
3880.00,0.0052
3879.00,0.0052
3878.00,0.0052
3877.00,0.0052
3876.00,0.0052
3875.00,0.0052
3874.00,0.0052
3873.00,0.0052
3872.00,0.0050
3871.00,0.0049
3870.00,0.0049
3869.00,0.0051
3868.00,0.0052
3867.00,0.0051
3866.00,0.0051
3865.00,0.0052
3864.00,0.0053
3863.00,0.0052
3862.00,0.0051
3861.00,0.0051
3860.00,0.0051
3859.00,0.0052
3858.00,0.0055
3857.00,0.0059
3856.00,0.0063
3855.00,0.0062
3854.00,0.0060
3853.00,0.0059
3852.00,0.0059
3851.00,0.0057
3850.00,0.0056
3849.00,0.0055
3848.00,0.0054
3847.00,0.0052
3846.00,0.0051
3845.00,0.0050
3844.00,0.0050
3843.00,0.0050
3842.00,0.0050
3841.00,0.0050
3840.00,0.0048
3839.00,0.0047
3838.00,0.0048
3837.00,0.0049
3836.00,0.0050
3835.00,0.0051
3834.00,0.0051
3833.00,0.0051
3832.00,0.0051
3831.00,0.0052
3830.00,0.0053
3829.00,0.0052
3828.00,0.0051
3827.00,0.0051
3826.00,0.0052
3825.00,0.0052
3824.00,0.0052
3823.00,0.0050
3822.00,0.0049
3821.00,0.0050
3820.00,0.0052
3819.00,0.0052
3818.00,0.0051
3817.00,0.0051
3816.00,0.0053
3815.00,0.0054
3814.00,0.0054
3813.00,0.0052
3812.00,0.0051
3811.00,0.0052
3810.00,0.0052
3809.00,0.0051
3808.00,0.0050
3807.00,0.0050
3806.00,0.0051
3805.00,0.0052
3804.00,0.0051
3803.00,0.0050
3802.00,0.0051
3801.00,0.0053
3800.00,0.0054
3799.00,0.0054
3798.00,0.0052
3797.00,0.0052
3796.00,0.0052
3795.00,0.0052
3794.00,0.0051
3793.00,0.0051
3792.00,0.0051
3791.00,0.0051
3790.00,0.0051
3789.00,0.0051
3788.00,0.0052
3787.00,0.0052
3786.00,0.0052
3785.00,0.0052
3784.00,0.0052
3783.00,0.0051
3782.00,0.0051
3781.00,0.0050
3780.00,0.0050
3779.00,0.0051
3778.00,0.0051
3777.00,0.0051
3776.00,0.0051
3775.00,0.0051
3774.00,0.0051
3773.00,0.0051
3772.00,0.0051
3771.00,0.0051
3770.00,0.0051
3769.00,0.0051
3768.00,0.0050
3767.00,0.0050
3766.00,0.0050
3765.00,0.0050
3764.00,0.0051
3763.00,0.0051
3762.00,0.0050
3761.00,0.0050
3760.00,0.0051
3759.00,0.0051
3758.00,0.0050
3757.00,0.0051
3756.00,0.0052
3755.00,0.0053
3754.00,0.0054
3753.00,0.0057
3752.00,0.0061
3751.00,0.0065
3750.00,0.0068
3749.00,0.0068
3748.00,0.0067
3747.00,0.0066
3746.00,0.0066
3745.00,0.0067
3744.00,0.0069
3743.00,0.0069
3742.00,0.0067
3741.00,0.0066
3740.00,0.0070
3739.00,0.0073
3738.00,0.0074
3737.00,0.0073
3736.00,0.0072
3735.00,0.0070
3734.00,0.0067
3733.00,0.0067
3732.00,0.0069
3731.00,0.0073
3730.00,0.0075
3729.00,0.0075
3728.00,0.0075
3727.00,0.0074
3726.00,0.0073
3725.00,0.0072
3724.00,0.0070
3723.00,0.0069
3722.00,0.0068
3721.00,0.0066
3720.00,0.0063
3719.00,0.0060
3718.00,0.0058
3717.00,0.0057
3716.00,0.0057
3715.00,0.0058
3714.00,0.0061
3713.00,0.0064
3712.00,0.0067
3711.00,0.0068
3710.00,0.0068
3709.00,0.0068
3708.00,0.0067
3707.00,0.0067
3706.00,0.0067
3705.00,0.0067
3704.00,0.0066
3703.00,0.0065
3702.00,0.0064
3701.00,0.0064
3700.00,0.0065
3699.00,0.0065
3698.00,0.0065
3697.00,0.0065
3696.00,0.0064
3695.00,0.0063
3694.00,0.0063
3693.00,0.0062
3692.00,0.0061
3691.00,0.0059
3690.00,0.0057
3689.00,0.0057
3688.00,0.0059
3687.00,0.0061
3686.00,0.0060
3685.00,0.0059
3684.00,0.0057
3683.00,0.0056
3682.00,0.0055
3681.00,0.0054
3680.00,0.0054
3679.00,0.0055
3678.00,0.0055
3677.00,0.0054
3676.00,0.0053
3675.00,0.0054
3674.00,0.0054
3673.00,0.0052
3672.00,0.0051
3671.00,0.0051
3670.00,0.0052
3669.00,0.0053
3668.00,0.0052
3667.00,0.0052
3666.00,0.0051
3665.00,0.0051
3664.00,0.0051
3663.00,0.0050
3662.00,0.0050
3661.00,0.0050
3660.00,0.0050
3659.00,0.0050
3658.00,0.0050
3657.00,0.0049
3656.00,0.0050
3655.00,0.0050
3654.00,0.0049
3653.00,0.0048
3652.00,0.0048
3651.00,0.0048
3650.00,0.0049
3649.00,0.0051
3648.00,0.0053
3647.00,0.0054
3646.00,0.0055
3645.00,0.0054
3644.00,0.0055
3643.00,0.0055
3642.00,0.0055
3641.00,0.0056
3640.00,0.0057
3639.00,0.0058
3638.00,0.0059
3637.00,0.0060
3636.00,0.0060
3635.00,0.0061
3634.00,0.0062
3633.00,0.0064
3632.00,0.0067
3631.00,0.0069
3630.00,0.0070
3629.00,0.0070
3628.00,0.0070
3627.00,0.0068
3626.00,0.0066
3625.00,0.0065
3624.00,0.0063
3623.00,0.0060
3622.00,0.0055
3621.00,0.0051
3620.00,0.0049
3619.00,0.0051
3618.00,0.0055
3617.00,0.0057
3616.00,0.0057
3615.00,0.0055
3614.00,0.0055
3613.00,0.0055
3612.00,0.0057
3611.00,0.0059
3610.00,0.0061
3609.00,0.0063
3608.00,0.0064
3607.00,0.0063
3606.00,0.0062
3605.00,0.0062
3604.00,0.0062
3603.00,0.0063
3602.00,0.0064
3601.00,0.0064
3600.00,0.0064
3599.00,0.0064
3598.00,0.0063
3597.00,0.0063
3596.00,0.0063
3595.00,0.0063
3594.00,0.0062
3593.00,0.0062
3592.00,0.0062
3591.00,0.0061
3590.00,0.0061
3589.00,0.0060
3588.00,0.0060
3587.00,0.0059
3586.00,0.0058
3585.00,0.0057
3584.00,0.0056
3583.00,0.0056
3582.00,0.0055
3581.00,0.0055
3580.00,0.0054
3579.00,0.0054
3578.00,0.0054
3577.00,0.0054
3576.00,0.0054
3575.00,0.0054
3574.00,0.0053
3573.00,0.0053
3572.00,0.0053
3571.00,0.0053
3570.00,0.0054
3569.00,0.0054
3568.00,0.0055
3567.00,0.0056
3566.00,0.0056
3565.00,0.0055
3564.00,0.0054
3563.00,0.0054
3562.00,0.0053
3561.00,0.0053
3560.00,0.0052
3559.00,0.0052
3558.00,0.0051
3557.00,0.0051
3556.00,0.0052
3555.00,0.0052
3554.00,0.0052
3553.00,0.0052
3552.00,0.0052
3551.00,0.0052
3550.00,0.0052
3549.00,0.0053
3548.00,0.0053
3547.00,0.0053
3546.00,0.0053
3545.00,0.0052
3544.00,0.0052
3543.00,0.0052
3542.00,0.0051
3541.00,0.0051
3540.00,0.0051
3539.00,0.0050
3538.00,0.0050
3537.00,0.0050
3536.00,0.0050
3535.00,0.0050
3534.00,0.0050
3533.00,0.0050
3532.00,0.0050
3531.00,0.0050
3530.00,0.0051
3529.00,0.0051
3528.00,0.0052
3527.00,0.0052
3526.00,0.0052
3525.00,0.0052
3524.00,0.0052
3523.00,0.0051
3522.00,0.0051
3521.00,0.0050
3520.00,0.0050
3519.00,0.0050
3518.00,0.0050
3517.00,0.0050
3516.00,0.0051
3515.00,0.0051
3514.00,0.0051
3513.00,0.0051
3512.00,0.0051
3511.00,0.0051
3510.00,0.0051
3509.00,0.0051
3508.00,0.0051
3507.00,0.0051
3506.00,0.0051
3505.00,0.0051
3504.00,0.0051
3503.00,0.0051
3502.00,0.0051
3501.00,0.0051
3500.00,0.0051
3499.00,0.0051
3498.00,0.0051
3497.00,0.0050
3496.00,0.0050
3495.00,0.0050
3494.00,0.0050
3493.00,0.0050
3492.00,0.0050
3491.00,0.0050
3490.00,0.0050
3489.00,0.0050
3488.00,0.0050
3487.00,0.0050
3486.00,0.0050
3485.00,0.0050
3484.00,0.0050
3483.00,0.0050
3482.00,0.0050
3481.00,0.0050
3480.00,0.0050
3479.00,0.0050
3478.00,0.0050
3477.00,0.0050
3476.00,0.0050
3475.00,0.0051
3474.00,0.0050
3473.00,0.0050
3472.00,0.0050
3471.00,0.0050
3470.00,0.0050
3469.00,0.0050
3468.00,0.0050
3467.00,0.0050
3466.00,0.0050
3465.00,0.0050
3464.00,0.0050
3463.00,0.0050
3462.00,0.0050
3461.00,0.0050
3460.00,0.0050
3459.00,0.0050
3458.00,0.0049
3457.00,0.0049
3456.00,0.0049
3455.00,0.0049
3454.00,0.0049
3453.00,0.0050
3452.00,0.0050
3451.00,0.0050
3450.00,0.0050
3449.00,0.0050
3448.00,0.0050
3447.00,0.0050
3446.00,0.0050
3445.00,0.0050
3444.00,0.0050
3443.00,0.0050
3442.00,0.0050
3441.00,0.0050
3440.00,0.0050
3439.00,0.0050
3438.00,0.0050
3437.00,0.0050
3436.00,0.0050
3435.00,0.0050
3434.00,0.0050
3433.00,0.0050
3432.00,0.0050
3431.00,0.0050
3430.00,0.0050
3429.00,0.0049
3428.00,0.0049
3427.00,0.0049
3426.00,0.0049
3425.00,0.0049
3424.00,0.0049
3423.00,0.0050
3422.00,0.0050
3421.00,0.0050
3420.00,0.0050
3419.00,0.0049
3418.00,0.0049
3417.00,0.0049
3416.00,0.0049
3415.00,0.0049
3414.00,0.0049
3413.00,0.0049
3412.00,0.0049
3411.00,0.0049
3410.00,0.0049
3409.00,0.0049
3408.00,0.0049
3407.00,0.0049
3406.00,0.0050
3405.00,0.0050
3404.00,0.0049
3403.00,0.0049
3402.00,0.0050
3401.00,0.0050
3400.00,0.0050
3399.00,0.0050
3398.00,0.0050
3397.00,0.0050
3396.00,0.0050
3395.00,0.0050
3394.00,0.0050
3393.00,0.0049
3392.00,0.0049
3391.00,0.0049
3390.00,0.0049
3389.00,0.0049
3388.00,0.0049
3387.00,0.0048
3386.00,0.0048
3385.00,0.0049
3384.00,0.0049
3383.00,0.0049
3382.00,0.0049
3381.00,0.0049
3380.00,0.0049
3379.00,0.0049
3378.00,0.0049
3377.00,0.0049
3376.00,0.0049
3375.00,0.0049
3374.00,0.0049
3373.00,0.0049
3372.00,0.0049
3371.00,0.0050
3370.00,0.0050
3369.00,0.0050
3368.00,0.0050
3367.00,0.0050
3366.00,0.0049
3365.00,0.0049
3364.00,0.0049
3363.00,0.0049
3362.00,0.0050
3361.00,0.0050
3360.00,0.0050
3359.00,0.0050
3358.00,0.0050
3357.00,0.0050
3356.00,0.0050
3355.00,0.0050
3354.00,0.0049
3353.00,0.0049
3352.00,0.0049
3351.00,0.0049
3350.00,0.0049
3349.00,0.0049
3348.00,0.0049
3347.00,0.0049
3346.00,0.0049
3345.00,0.0049
3344.00,0.0049
3343.00,0.0049
3342.00,0.0049
3341.00,0.0049
3340.00,0.0049
3339.00,0.0050
3338.00,0.0050
3337.00,0.0050
3336.00,0.0050
3335.00,0.0049
3334.00,0.0049
3333.00,0.0049
3332.00,0.0049
3331.00,0.0049
3330.00,0.0049
3329.00,0.0049
3328.00,0.0049
3327.00,0.0049
3326.00,0.0049
3325.00,0.0049
3324.00,0.0049
3323.00,0.0049
3322.00,0.0049
3321.00,0.0049
3320.00,0.0049
3319.00,0.0048
3318.00,0.0048
3317.00,0.0048
3316.00,0.0049
3315.00,0.0049
3314.00,0.0048
3313.00,0.0048
3312.00,0.0048
3311.00,0.0048
3310.00,0.0048
3309.00,0.0049
3308.00,0.0049
3307.00,0.0049
3306.00,0.0049
3305.00,0.0049
3304.00,0.0048
3303.00,0.0048
3302.00,0.0048
3301.00,0.0048
3300.00,0.0048
3299.00,0.0048
3298.00,0.0048
3297.00,0.0048
3296.00,0.0048
3295.00,0.0048
3294.00,0.0048
3293.00,0.0049
3292.00,0.0049
3291.00,0.0048
3290.00,0.0048
3289.00,0.0048
3288.00,0.0048
3287.00,0.0047
3286.00,0.0047
3285.00,0.0048
3284.00,0.0048
3283.00,0.0048
3282.00,0.0048
3281.00,0.0048
3280.00,0.0048
3279.00,0.0048
3278.00,0.0048
3277.00,0.0048
3276.00,0.0048
3275.00,0.0048
3274.00,0.0048
3273.00,0.0047
3272.00,0.0047
3271.00,0.0048
3270.00,0.0048
3269.00,0.0048
3268.00,0.0048
3267.00,0.0047
3266.00,0.0047
3265.00,0.0047
3264.00,0.0047
3263.00,0.0047
3262.00,0.0047
3261.00,0.0047
3260.00,0.0047
3259.00,0.0047
3258.00,0.0047
3257.00,0.0047
3256.00,0.0047
3255.00,0.0048
3254.00,0.0048
3253.00,0.0048
3252.00,0.0048
3251.00,0.0048
3250.00,0.0048
3249.00,0.0048
3248.00,0.0047
3247.00,0.0048
3246.00,0.0048
3245.00,0.0048
3244.00,0.0048
3243.00,0.0048
3242.00,0.0048
3241.00,0.0048
3240.00,0.0047
3239.00,0.0047
3238.00,0.0047
3237.00,0.0047
3236.00,0.0047
3235.00,0.0047
3234.00,0.0047
3233.00,0.0047
3232.00,0.0047
3231.00,0.0047
3230.00,0.0047
3229.00,0.0046
3228.00,0.0046
3227.00,0.0046
3226.00,0.0046
3225.00,0.0046
3224.00,0.0047
3223.00,0.0047
3222.00,0.0048
3221.00,0.0048
3220.00,0.0048
3219.00,0.0048
3218.00,0.0048
3217.00,0.0047
3216.00,0.0047
3215.00,0.0047
3214.00,0.0047
3213.00,0.0047
3212.00,0.0047
3211.00,0.0047
3210.00,0.0047
3209.00,0.0047
3208.00,0.0047
3207.00,0.0047
3206.00,0.0047
3205.00,0.0047
3204.00,0.0047
3203.00,0.0047
3202.00,0.0047
3201.00,0.0047
3200.00,0.0047
3199.00,0.0047
3198.00,0.0047
3197.00,0.0046
3196.00,0.0046
3195.00,0.0046
3194.00,0.0046
3193.00,0.0047
3192.00,0.0047
3191.00,0.0047
3190.00,0.0047
3189.00,0.0047
3188.00,0.0047
3187.00,0.0047
3186.00,0.0047
3185.00,0.0046
3184.00,0.0046
3183.00,0.0046
3182.00,0.0046
3181.00,0.0046
3180.00,0.0046
3179.00,0.0046
3178.00,0.0046
3177.00,0.0046
3176.00,0.0046
3175.00,0.0046
3174.00,0.0046
3173.00,0.0045
3172.00,0.0045
3171.00,0.0045
3170.00,0.0045
3169.00,0.0045
3168.00,0.0046
3167.00,0.0046
3166.00,0.0046
3165.00,0.0046
3164.00,0.0046
3163.00,0.0046
3162.00,0.0046
3161.00,0.0046
3160.00,0.0046
3159.00,0.0045
3158.00,0.0045
3157.00,0.0046
3156.00,0.0046
3155.00,0.0046
3154.00,0.0046
3153.00,0.0046
3152.00,0.0046
3151.00,0.0045
3150.00,0.0045
3149.00,0.0045
3148.00,0.0046
3147.00,0.0046
3146.00,0.0046
3145.00,0.0046
3144.00,0.0046
3143.00,0.0046
3142.00,0.0046
3141.00,0.0046
3140.00,0.0046
3139.00,0.0045
3138.00,0.0045
3137.00,0.0046
3136.00,0.0046
3135.00,0.0046
3134.00,0.0046
3133.00,0.0046
3132.00,0.0045
3131.00,0.0045
3130.00,0.0045
3129.00,0.0045
3128.00,0.0045
3127.00,0.0045
3126.00,0.0045
3125.00,0.0045
3124.00,0.0045
3123.00,0.0045
3122.00,0.0046
3121.00,0.0046
3120.00,0.0046
3119.00,0.0046
3118.00,0.0046
3117.00,0.0046
3116.00,0.0046
3115.00,0.0046
3114.00,0.0046
3113.00,0.0046
3112.00,0.0046
3111.00,0.0045
3110.00,0.0045
3109.00,0.0045
3108.00,0.0045
3107.00,0.0045
3106.00,0.0045
3105.00,0.0045
3104.00,0.0045
3103.00,0.0045
3102.00,0.0045
3101.00,0.0045
3100.00,0.0045
3099.00,0.0046
3098.00,0.0046
3097.00,0.0046
3096.00,0.0046
3095.00,0.0046
3094.00,0.0045
3093.00,0.0045
3092.00,0.0045
3091.00,0.0045
3090.00,0.0045
3089.00,0.0045
3088.00,0.0045
3087.00,0.0045
3086.00,0.0045
3085.00,0.0045
3084.00,0.0045
3083.00,0.0045
3082.00,0.0045
3081.00,0.0045
3080.00,0.0045
3079.00,0.0045
3078.00,0.0046
3077.00,0.0046
3076.00,0.0045
3075.00,0.0045
3074.00,0.0045
3073.00,0.0044
3072.00,0.0044
3071.00,0.0045
3070.00,0.0045
3069.00,0.0045
3068.00,0.0045
3067.00,0.0045
3066.00,0.0045
3065.00,0.0045
3064.00,0.0045
3063.00,0.0045
3062.00,0.0045
3061.00,0.0045
3060.00,0.0045
3059.00,0.0045
3058.00,0.0045
3057.00,0.0045
3056.00,0.0045
3055.00,0.0045
3054.00,0.0045
3053.00,0.0044
3052.00,0.0044
3051.00,0.0044
3050.00,0.0044
3049.00,0.0045
3048.00,0.0045
3047.00,0.0045
3046.00,0.0045
3045.00,0.0044
3044.00,0.0044
3043.00,0.0044
3042.00,0.0044
3041.00,0.0044
3040.00,0.0044
3039.00,0.0044
3038.00,0.0044
3037.00,0.0044
3036.00,0.0044
3035.00,0.0044
3034.00,0.0044
3033.00,0.0044
3032.00,0.0044
3031.00,0.0044
3030.00,0.0045
3029.00,0.0045
3028.00,0.0045
3027.00,0.0045
3026.00,0.0045
3025.00,0.0045
3024.00,0.0044
3023.00,0.0044
3022.00,0.0044
3021.00,0.0044
3020.00,0.0045
3019.00,0.0045
3018.00,0.0045
3017.00,0.0045
3016.00,0.0045
3015.00,0.0045
3014.00,0.0045
3013.00,0.0045
3012.00,0.0045
3011.00,0.0045
3010.00,0.0045
3009.00,0.0044
3008.00,0.0044
3007.00,0.0044
3006.00,0.0044
3005.00,0.0044
3004.00,0.0044
3003.00,0.0044
3002.00,0.0044
3001.00,0.0044
3000.00,0.0044
2999.00,0.0044
2998.00,0.0044
2997.00,0.0044
2996.00,0.0045
2995.00,0.0045
2994.00,0.0045
2993.00,0.0045
2992.00,0.0044
2991.00,0.0044
2990.00,0.0044
2989.00,0.0044
2988.00,0.0044
2987.00,0.0044
2986.00,0.0044
2985.00,0.0044
2984.00,0.0044
2983.00,0.0044
2982.00,0.0044
2981.00,0.0044
2980.00,0.0044
2979.00,0.0044
2978.00,0.0044
2977.00,0.0044
2976.00,0.0044
2975.00,0.0044
2974.00,0.0044
2973.00,0.0044
2972.00,0.0044
2971.00,0.0044
2970.00,0.0044
2969.00,0.0044
2968.00,0.0044
2967.00,0.0043
2966.00,0.0043
2965.00,0.0044
2964.00,0.0044
2963.00,0.0044
2962.00,0.0044
2961.00,0.0044
2960.00,0.0044
2959.00,0.0044
2958.00,0.0044
2957.00,0.0044
2956.00,0.0044
2955.00,0.0044
2954.00,0.0044
2953.00,0.0044
2952.00,0.0044
2951.00,0.0044
2950.00,0.0044
2949.00,0.0044
2948.00,0.0044
2947.00,0.0044
2946.00,0.0044
2945.00,0.0044
2944.00,0.0044
2943.00,0.0044
2942.00,0.0044
2941.00,0.0044
2940.00,0.0044
2939.00,0.0044
2938.00,0.0044
2937.00,0.0044
2936.00,0.0044
2935.00,0.0044
2934.00,0.0044
2933.00,0.0045
2932.00,0.0045
2931.00,0.0044
2930.00,0.0044
2929.00,0.0044
2928.00,0.0044
2927.00,0.0044
2926.00,0.0044
2925.00,0.0044
2924.00,0.0044
2923.00,0.0044
2922.00,0.0044
2921.00,0.0044
2920.00,0.0043
2919.00,0.0043
2918.00,0.0043
2917.00,0.0044
2916.00,0.0044
2915.00,0.0044
2914.00,0.0044
2913.00,0.0044
2912.00,0.0043
2911.00,0.0043
2910.00,0.0043
2909.00,0.0044
2908.00,0.0044
2907.00,0.0044
2906.00,0.0044
2905.00,0.0044
2904.00,0.0044
2903.00,0.0044
2902.00,0.0044
2901.00,0.0044
2900.00,0.0044
2899.00,0.0044
2898.00,0.0044
2897.00,0.0043
2896.00,0.0043
2895.00,0.0043
2894.00,0.0043
2893.00,0.0043
2892.00,0.0044
2891.00,0.0044
2890.00,0.0044
2889.00,0.0044
2888.00,0.0044
2887.00,0.0043
2886.00,0.0043
2885.00,0.0043
2884.00,0.0043
2883.00,0.0043
2882.00,0.0043
2881.00,0.0043
2880.00,0.0043
2879.00,0.0043
2878.00,0.0043
2877.00,0.0043
2876.00,0.0043
2875.00,0.0043
2874.00,0.0043
2873.00,0.0043
2872.00,0.0043
2871.00,0.0043
2870.00,0.0043
2869.00,0.0043
2868.00,0.0043
2867.00,0.0043
2866.00,0.0043
2865.00,0.0043
2864.00,0.0043
2863.00,0.0043
2862.00,0.0043
2861.00,0.0043
2860.00,0.0043
2859.00,0.0043
2858.00,0.0043
2857.00,0.0043
2856.00,0.0043
2855.00,0.0043
2854.00,0.0043
2853.00,0.0043
2852.00,0.0043
2851.00,0.0043
2850.00,0.0043
2849.00,0.0042
2848.00,0.0043
2847.00,0.0043
2846.00,0.0043
2845.00,0.0042
2844.00,0.0042
2843.00,0.0042
2842.00,0.0042
2841.00,0.0042
2840.00,0.0043
2839.00,0.0043
2838.00,0.0043
2837.00,0.0043
2836.00,0.0042
2835.00,0.0042
2834.00,0.0042
2833.00,0.0042
2832.00,0.0042
2831.00,0.0042
2830.00,0.0042
2829.00,0.0042
2828.00,0.0043
2827.00,0.0043
2826.00,0.0043
2825.00,0.0043
2824.00,0.0043
2823.00,0.0042
2822.00,0.0042
2821.00,0.0042
2820.00,0.0043
2819.00,0.0042
2818.00,0.0042
2817.00,0.0042
2816.00,0.0042
2815.00,0.0042
2814.00,0.0042
2813.00,0.0042
2812.00,0.0042
2811.00,0.0042
2810.00,0.0042
2809.00,0.0042
2808.00,0.0042
2807.00,0.0042
2806.00,0.0042
2805.00,0.0042
2804.00,0.0042
2803.00,0.0043
2802.00,0.0043
2801.00,0.0043
2800.00,0.0042
2799.00,0.0042
2798.00,0.0041
2797.00,0.0041
2796.00,0.0042
2795.00,0.0042
2794.00,0.0042
2793.00,0.0042
2792.00,0.0042
2791.00,0.0042
2790.00,0.0042
2789.00,0.0042
2788.00,0.0042
2787.00,0.0042
2786.00,0.0042
2785.00,0.0042
2784.00,0.0042
2783.00,0.0042
2782.00,0.0042
2781.00,0.0042
2780.00,0.0042
2779.00,0.0042
2778.00,0.0042
2777.00,0.0042
2776.00,0.0042
2775.00,0.0042
2774.00,0.0042
2773.00,0.0042
2772.00,0.0042
2771.00,0.0042
2770.00,0.0042
2769.00,0.0042
2768.00,0.0042
2767.00,0.0042
2766.00,0.0042
2765.00,0.0042
2764.00,0.0042
2763.00,0.0042
2762.00,0.0042
2761.00,0.0042
2760.00,0.0042
2759.00,0.0042
2758.00,0.0042
2757.00,0.0042
2756.00,0.0042
2755.00,0.0042
2754.00,0.0042
2753.00,0.0042
2752.00,0.0042
2751.00,0.0042
2750.00,0.0041
2749.00,0.0041
2748.00,0.0041
2747.00,0.0041
2746.00,0.0041
2745.00,0.0041
2744.00,0.0041
2743.00,0.0041
2742.00,0.0041
2741.00,0.0041
2740.00,0.0041
2739.00,0.0041
2738.00,0.0042
2737.00,0.0042
2736.00,0.0042
2735.00,0.0042
2734.00,0.0042
2733.00,0.0042
2732.00,0.0041
2731.00,0.0041
2730.00,0.0041
2729.00,0.0041
2728.00,0.0041
2727.00,0.0041
2726.00,0.0041
2725.00,0.0041
2724.00,0.0041
2723.00,0.0041
2722.00,0.0041
2721.00,0.0041
2720.00,0.0041
2719.00,0.0040
2718.00,0.0041
2717.00,0.0041
2716.00,0.0041
2715.00,0.0041
2714.00,0.0041
2713.00,0.0042
2712.00,0.0042
2711.00,0.0041
2710.00,0.0041
2709.00,0.0041
2708.00,0.0041
2707.00,0.0041
2706.00,0.0041
2705.00,0.0041
2704.00,0.0041
2703.00,0.0041
2702.00,0.0041
2701.00,0.0041
2700.00,0.0040
2699.00,0.0041
2698.00,0.0041
2697.00,0.0041
2696.00,0.0041
2695.00,0.0040
2694.00,0.0040
2693.00,0.0040
2692.00,0.0040
2691.00,0.0040
2690.00,0.0040
2689.00,0.0040
2688.00,0.0041
2687.00,0.0041
2686.00,0.0041
2685.00,0.0041
2684.00,0.0041
2683.00,0.0040
2682.00,0.0041
2681.00,0.0041
2680.00,0.0041
2679.00,0.0042
2678.00,0.0042
2677.00,0.0041
2676.00,0.0041
2675.00,0.0041
2674.00,0.0041
2673.00,0.0041
2672.00,0.0041
2671.00,0.0041
2670.00,0.0041
2669.00,0.0041
2668.00,0.0041
2667.00,0.0041
2666.00,0.0041
2665.00,0.0041
2664.00,0.0041
2663.00,0.0040
2662.00,0.0040
2661.00,0.0040
2660.00,0.0041
2659.00,0.0041
2658.00,0.0040
2657.00,0.0040
2656.00,0.0040
2655.00,0.0040
2654.00,0.0040
2653.00,0.0040
2652.00,0.0041
2651.00,0.0041
2650.00,0.0041
2649.00,0.0041
2648.00,0.0041
2647.00,0.0041
2646.00,0.0041
2645.00,0.0041
2644.00,0.0041
2643.00,0.0041
2642.00,0.0041
2641.00,0.0041
2640.00,0.0041
2639.00,0.0041
2638.00,0.0040
2637.00,0.0040
2636.00,0.0040
2635.00,0.0040
2634.00,0.0041
2633.00,0.0041
2632.00,0.0040
2631.00,0.0040
2630.00,0.0040
2629.00,0.0040
2628.00,0.0041
2627.00,0.0041
2626.00,0.0041
2625.00,0.0040
2624.00,0.0040
2623.00,0.0040
2622.00,0.0040
2621.00,0.0040
2620.00,0.0040
2619.00,0.0040
2618.00,0.0040
2617.00,0.0040
2616.00,0.0040
2615.00,0.0040
2614.00,0.0040
2613.00,0.0041
2612.00,0.0040
2611.00,0.0040
2610.00,0.0040
2609.00,0.0040
2608.00,0.0040
2607.00,0.0040
2606.00,0.0040
2605.00,0.0040
2604.00,0.0040
2603.00,0.0040
2602.00,0.0040
2601.00,0.0040
2600.00,0.0040
2599.00,0.0040
2598.00,0.0040
2597.00,0.0040
2596.00,0.0040
2595.00,0.0040
2594.00,0.0040
2593.00,0.0040
2592.00,0.0040
2591.00,0.0040
2590.00,0.0040
2589.00,0.0040
2588.00,0.0040
2587.00,0.0040
2586.00,0.0040
2585.00,0.0040
2584.00,0.0040
2583.00,0.0039
2582.00,0.0039
2581.00,0.0039
2580.00,0.0039
2579.00,0.0039
2578.00,0.0039
2577.00,0.0040
2576.00,0.0040
2575.00,0.0040
2574.00,0.0040
2573.00,0.0040
2572.00,0.0040
2571.00,0.0040
2570.00,0.0040
2569.00,0.0040
2568.00,0.0040
2567.00,0.0040
2566.00,0.0040
2565.00,0.0040
2564.00,0.0040
2563.00,0.0040
2562.00,0.0040
2561.00,0.0040
2560.00,0.0040
2559.00,0.0040
2558.00,0.0040
2557.00,0.0040
2556.00,0.0040
2555.00,0.0040
2554.00,0.0040
2553.00,0.0040
2552.00,0.0040
2551.00,0.0040
2550.00,0.0040
2549.00,0.0040
2548.00,0.0040
2547.00,0.0040
2546.00,0.0040
2545.00,0.0040
2544.00,0.0040
2543.00,0.0040
2542.00,0.0039
2541.00,0.0039
2540.00,0.0039
2539.00,0.0040
2538.00,0.0040
2537.00,0.0040
2536.00,0.0039
2535.00,0.0040
2534.00,0.0040
2533.00,0.0039
2532.00,0.0039
2531.00,0.0039
2530.00,0.0039
2529.00,0.0039
2528.00,0.0039
2527.00,0.0040
2526.00,0.0040
2525.00,0.0040
2524.00,0.0039
2523.00,0.0039
2522.00,0.0039
2521.00,0.0039
2520.00,0.0039
2519.00,0.0039
2518.00,0.0039
2517.00,0.0039
2516.00,0.0039
2515.00,0.0039
2514.00,0.0040
2513.00,0.0040
2512.00,0.0039
2511.00,0.0039
2510.00,0.0039
2509.00,0.0039
2508.00,0.0038
2507.00,0.0038
2506.00,0.0039
2505.00,0.0039
2504.00,0.0039
2503.00,0.0039
2502.00,0.0039
2501.00,0.0039
2500.00,0.0039
2499.00,0.0039
2498.00,0.0039
2497.00,0.0039
2496.00,0.0039
2495.00,0.0039
2494.00,0.0038
2493.00,0.0038
2492.00,0.0038
2491.00,0.0039
2490.00,0.0039
2489.00,0.0039
2488.00,0.0039
2487.00,0.0039
2486.00,0.0039
2485.00,0.0038
2484.00,0.0038
2483.00,0.0038
2482.00,0.0038
2481.00,0.0038
2480.00,0.0038
2479.00,0.0038
2478.00,0.0039
2477.00,0.0039
2476.00,0.0038
2475.00,0.0038
2474.00,0.0038
2473.00,0.0038
2472.00,0.0038
2471.00,0.0038
2470.00,0.0038
2469.00,0.0038
2468.00,0.0038
2467.00,0.0038
2466.00,0.0038
2465.00,0.0038
2464.00,0.0038
2463.00,0.0038
2462.00,0.0038
2461.00,0.0038
2460.00,0.0038
2459.00,0.0039
2458.00,0.0039
2457.00,0.0039
2456.00,0.0039
2455.00,0.0038
2454.00,0.0038
2453.00,0.0038
2452.00,0.0038
2451.00,0.0038
2450.00,0.0038
2449.00,0.0039
2448.00,0.0039
2447.00,0.0039
2446.00,0.0039
2445.00,0.0039
2444.00,0.0039
2443.00,0.0039
2442.00,0.0038
2441.00,0.0038
2440.00,0.0038
2439.00,0.0038
2438.00,0.0038
2437.00,0.0038
2436.00,0.0038
2435.00,0.0038
2434.00,0.0038
2433.00,0.0038
2432.00,0.0038
2431.00,0.0038
2430.00,0.0038
2429.00,0.0038
2428.00,0.0038
2427.00,0.0038
2426.00,0.0037
2425.00,0.0038
2424.00,0.0038
2423.00,0.0037
2422.00,0.0038
2421.00,0.0038
2420.00,0.0038
2419.00,0.0038
2418.00,0.0038
2417.00,0.0038
2416.00,0.0038
2415.00,0.0038
2414.00,0.0038
2413.00,0.0038
2412.00,0.0038
2411.00,0.0037
2410.00,0.0037
2409.00,0.0038
2408.00,0.0038
2407.00,0.0038
2406.00,0.0038
2405.00,0.0038
2404.00,0.0038
2403.00,0.0038
2402.00,0.0038
2401.00,0.0038
2400.00,0.0038
2399.00,0.0038
2398.00,0.0037
2397.00,0.0037
2396.00,0.0037
2395.00,0.0037
2394.00,0.0037
2393.00,0.0038
2392.00,0.0038
2391.00,0.0039
2390.00,0.0041
2389.00,0.0044
2388.00,0.0047
2387.00,0.0052
2386.00,0.0059
2385.00,0.0068
2384.00,0.0077
2383.00,0.0086
2382.00,0.0092
2381.00,0.0096
2380.00,0.0094
2379.00,0.0089
2378.00,0.0083
2377.00,0.0078
2376.00,0.0076
2375.00,0.0078
2374.00,0.0084
2373.00,0.0092
2372.00,0.0100
2371.00,0.0105
2370.00,0.0109
2369.00,0.0111
2368.00,0.0112
2367.00,0.0112
2366.00,0.0112
2365.00,0.0112
2364.00,0.0114
2363.00,0.0116
2362.00,0.0121
2361.00,0.0130
2360.00,0.0140
2359.00,0.0149
2358.00,0.0158
2357.00,0.0165
2356.00,0.0169
2355.00,0.0164
2354.00,0.0155
2353.00,0.0152
2352.00,0.0158
2351.00,0.0165
2350.00,0.0166
2349.00,0.0165
2348.00,0.0168
2347.00,0.0174
2346.00,0.0177
2345.00,0.0178
2344.00,0.0178
2343.00,0.0180
2342.00,0.0186
2341.00,0.0191
2340.00,0.0194
2339.00,0.0192
2338.00,0.0189
2337.00,0.0186
2336.00,0.0189
2335.00,0.0197
2334.00,0.0209
2333.00,0.0220
2332.00,0.0229
2331.00,0.0234
2330.00,0.0230
2329.00,0.0221
2328.00,0.0211
2327.00,0.0209
2326.00,0.0214
2325.00,0.0220
2324.00,0.0222
2323.00,0.0216
2322.00,0.0209
2321.00,0.0202
2320.00,0.0194
2319.00,0.0184
2318.00,0.0172
2317.00,0.0162
2316.00,0.0154
2315.00,0.0148
2314.00,0.0141
2313.00,0.0134
2312.00,0.0128
2311.00,0.0123
2310.00,0.0121
2309.00,0.0118
2308.00,0.0117
2307.00,0.0115
2306.00,0.0112
2305.00,0.0109
2304.00,0.0105
2303.00,0.0101
2302.00,0.0098
2301.00,0.0095
2300.00,0.0092
2299.00,0.0089
2298.00,0.0086
2297.00,0.0082
2296.00,0.0078
2295.00,0.0075
2294.00,0.0072
2293.00,0.0068
2292.00,0.0065
2291.00,0.0062
2290.00,0.0059
2289.00,0.0056
2288.00,0.0053
2287.00,0.0051
2286.00,0.0048
2285.00,0.0046
2284.00,0.0045
2283.00,0.0045
2282.00,0.0045
2281.00,0.0045
2280.00,0.0046
2279.00,0.0046
2278.00,0.0047
2277.00,0.0047
2276.00,0.0047
2275.00,0.0047
2274.00,0.0047
2273.00,0.0047
2272.00,0.0047
2271.00,0.0047
2270.00,0.0047
2269.00,0.0047
2268.00,0.0046
2267.00,0.0046
2266.00,0.0046
2265.00,0.0046
2264.00,0.0045
2263.00,0.0045
2262.00,0.0045
2261.00,0.0044
2260.00,0.0044
2259.00,0.0043
2258.00,0.0043
2257.00,0.0042
2256.00,0.0042
2255.00,0.0042
2254.00,0.0041
2253.00,0.0041
2252.00,0.0040
2251.00,0.0040
2250.00,0.0039
2249.00,0.0039
2248.00,0.0039
2247.00,0.0039
2246.00,0.0038
2245.00,0.0038
2244.00,0.0037
2243.00,0.0037
2242.00,0.0037
2241.00,0.0037
2240.00,0.0037
2239.00,0.0037
2238.00,0.0037
2237.00,0.0037
2236.00,0.0037
2235.00,0.0037
2234.00,0.0037
2233.00,0.0036
2232.00,0.0036
2231.00,0.0036
2230.00,0.0036
2229.00,0.0036
2228.00,0.0036
2227.00,0.0036
2226.00,0.0036
2225.00,0.0036
2224.00,0.0036
2223.00,0.0036
2222.00,0.0036
2221.00,0.0036
2220.00,0.0035
2219.00,0.0035
2218.00,0.0035
2217.00,0.0035
2216.00,0.0036
2215.00,0.0036
2214.00,0.0036
2213.00,0.0036
2212.00,0.0036
2211.00,0.0036
2210.00,0.0036
2209.00,0.0035
2208.00,0.0035
2207.00,0.0035
2206.00,0.0036
2205.00,0.0035
2204.00,0.0035
2203.00,0.0035
2202.00,0.0035
2201.00,0.0035
2200.00,0.0035
2199.00,0.0035
2198.00,0.0035
2197.00,0.0035
2196.00,0.0035
2195.00,0.0035
2194.00,0.0035
2193.00,0.0035
2192.00,0.0035
2191.00,0.0036
2190.00,0.0036
2189.00,0.0035
2188.00,0.0035
2187.00,0.0035
2186.00,0.0035
2185.00,0.0035
2184.00,0.0035
2183.00,0.0035
2182.00,0.0035
2181.00,0.0035
2180.00,0.0035
2179.00,0.0035
2178.00,0.0035
2177.00,0.0035
2176.00,0.0035
2175.00,0.0035
2174.00,0.0035
2173.00,0.0035
2172.00,0.0035
2171.00,0.0035
2170.00,0.0035
2169.00,0.0035
2168.00,0.0035
2167.00,0.0035
2166.00,0.0035
2165.00,0.0035
2164.00,0.0035
2163.00,0.0035
2162.00,0.0035
2161.00,0.0035
2160.00,0.0035
2159.00,0.0035
2158.00,0.0035
2157.00,0.0035
2156.00,0.0035
2155.00,0.0035
2154.00,0.0035
2153.00,0.0035
2152.00,0.0035
2151.00,0.0035
2150.00,0.0035
2149.00,0.0035
2148.00,0.0035
2147.00,0.0035
2146.00,0.0035
2145.00,0.0035
2144.00,0.0035
2143.00,0.0035
2142.00,0.0035
2141.00,0.0035
2140.00,0.0035
2139.00,0.0035
2138.00,0.0035
2137.00,0.0035
2136.00,0.0035
2135.00,0.0035
2134.00,0.0035
2133.00,0.0035
2132.00,0.0035
2131.00,0.0035
2130.00,0.0035
2129.00,0.0035
2128.00,0.0035
2127.00,0.0034
2126.00,0.0034
2125.00,0.0034
2124.00,0.0034
2123.00,0.0035
2122.00,0.0035
2121.00,0.0035
2120.00,0.0034
2119.00,0.0034
2118.00,0.0034
2117.00,0.0034
2116.00,0.0035
2115.00,0.0035
2114.00,0.0035
2113.00,0.0035
2112.00,0.0034
2111.00,0.0034
2110.00,0.0034
2109.00,0.0034
2108.00,0.0034
2107.00,0.0034
2106.00,0.0034
2105.00,0.0034
2104.00,0.0034
2103.00,0.0034
2102.00,0.0034
2101.00,0.0034
2100.00,0.0034
2099.00,0.0034
2098.00,0.0034
2097.00,0.0034
2096.00,0.0035
2095.00,0.0035
2094.00,0.0035
2093.00,0.0035
2092.00,0.0035
2091.00,0.0035
2090.00,0.0035
2089.00,0.0035
2088.00,0.0035
2087.00,0.0035
2086.00,0.0035
2085.00,0.0034
2084.00,0.0034
2083.00,0.0034
2082.00,0.0034
2081.00,0.0034
2080.00,0.0034
2079.00,0.0034
2078.00,0.0035
2077.00,0.0035
2076.00,0.0035
2075.00,0.0035
2074.00,0.0034
2073.00,0.0034
2072.00,0.0034
2071.00,0.0034
2070.00,0.0034
2069.00,0.0034
2068.00,0.0034
2067.00,0.0034
2066.00,0.0034
2065.00,0.0034
2064.00,0.0034
2063.00,0.0034
2062.00,0.0034
2061.00,0.0034
2060.00,0.0034
2059.00,0.0034
2058.00,0.0033
2057.00,0.0033
2056.00,0.0033
2055.00,0.0034
2054.00,0.0034
2053.00,0.0034
2052.00,0.0033
2051.00,0.0033
2050.00,0.0034
2049.00,0.0034
2048.00,0.0034
2047.00,0.0034
2046.00,0.0034
2045.00,0.0035
2044.00,0.0035
2043.00,0.0035
2042.00,0.0035
2041.00,0.0034
2040.00,0.0034
2039.00,0.0034
2038.00,0.0034
2037.00,0.0034
2036.00,0.0034
2035.00,0.0034
2034.00,0.0034
2033.00,0.0034
2032.00,0.0034
2031.00,0.0034
2030.00,0.0034
2029.00,0.0034
2028.00,0.0034
2027.00,0.0034
2026.00,0.0034
2025.00,0.0034
2024.00,0.0033
2023.00,0.0033
2022.00,0.0033
2021.00,0.0034
2020.00,0.0034
2019.00,0.0034
2018.00,0.0034
2017.00,0.0034
2016.00,0.0034
2015.00,0.0034
2014.00,0.0034
2013.00,0.0034
2012.00,0.0034
2011.00,0.0034
2010.00,0.0034
2009.00,0.0034
2008.00,0.0034
2007.00,0.0034
2006.00,0.0034
2005.00,0.0034
2004.00,0.0034
2003.00,0.0034
2002.00,0.0034
2001.00,0.0033
2000.00,0.0033
1999.00,0.0034
1998.00,0.0034
1997.00,0.0034
1996.00,0.0034
1995.00,0.0034
1994.00,0.0033
1993.00,0.0033
1992.00,0.0033
1991.00,0.0034
1990.00,0.0034
1989.00,0.0034
1988.00,0.0034
1987.00,0.0034
1986.00,0.0034
1985.00,0.0033
1984.00,0.0033
1983.00,0.0033
1982.00,0.0033
1981.00,0.0033
1980.00,0.0033
1979.00,0.0033
1978.00,0.0033
1977.00,0.0033
1976.00,0.0033
1975.00,0.0033
1974.00,0.0033
1973.00,0.0033
1972.00,0.0033
1971.00,0.0033
1970.00,0.0033
1969.00,0.0033
1968.00,0.0033
1967.00,0.0033
1966.00,0.0034
1965.00,0.0034
1964.00,0.0034
1963.00,0.0034
1962.00,0.0034
1961.00,0.0033
1960.00,0.0033
1959.00,0.0033
1958.00,0.0033
1957.00,0.0033
1956.00,0.0033
1955.00,0.0034
1954.00,0.0034
1953.00,0.0034
1952.00,0.0033
1951.00,0.0033
1950.00,0.0033
1949.00,0.0033
1948.00,0.0033
1947.00,0.0033
1946.00,0.0033
1945.00,0.0033
1944.00,0.0033
1943.00,0.0033
1942.00,0.0033
1941.00,0.0033
1940.00,0.0033
1939.00,0.0033
1938.00,0.0032
1937.00,0.0032
1936.00,0.0032
1935.00,0.0033
1934.00,0.0033
1933.00,0.0033
1932.00,0.0033
1931.00,0.0033
1930.00,0.0033
1929.00,0.0033
1928.00,0.0032
1927.00,0.0032
1926.00,0.0032
1925.00,0.0033
1924.00,0.0033
1923.00,0.0033
1922.00,0.0033
1921.00,0.0033
1920.00,0.0032
1919.00,0.0031
1918.00,0.0032
1917.00,0.0032
1916.00,0.0033
1915.00,0.0034
1914.00,0.0034
1913.00,0.0033
1912.00,0.0033
1911.00,0.0034
1910.00,0.0034
1909.00,0.0034
1908.00,0.0033
1907.00,0.0033
1906.00,0.0033
1905.00,0.0032
1904.00,0.0032
1903.00,0.0033
1902.00,0.0033
1901.00,0.0033
1900.00,0.0032
1899.00,0.0032
1898.00,0.0032
1897.00,0.0032
1896.00,0.0032
1895.00,0.0033
1894.00,0.0033
1893.00,0.0032
1892.00,0.0032
1891.00,0.0032
1890.00,0.0032
1889.00,0.0032
1888.00,0.0032
1887.00,0.0032
1886.00,0.0033
1885.00,0.0033
1884.00,0.0033
1883.00,0.0033
1882.00,0.0033
1881.00,0.0033
1880.00,0.0033
1879.00,0.0033
1878.00,0.0033
1877.00,0.0032
1876.00,0.0032
1875.00,0.0032
1874.00,0.0033
1873.00,0.0032
1872.00,0.0032
1871.00,0.0031
1870.00,0.0031
1869.00,0.0032
1868.00,0.0032
1867.00,0.0033
1866.00,0.0034
1865.00,0.0034
1864.00,0.0033
1863.00,0.0033
1862.00,0.0033
1861.00,0.0033
1860.00,0.0032
1859.00,0.0032
1858.00,0.0033
1857.00,0.0032
1856.00,0.0032
1855.00,0.0032
1854.00,0.0032
1853.00,0.0032
1852.00,0.0032
1851.00,0.0033
1850.00,0.0033
1849.00,0.0033
1848.00,0.0033
1847.00,0.0033
1846.00,0.0033
1845.00,0.0033
1844.00,0.0033
1843.00,0.0033
1842.00,0.0033
1841.00,0.0033
1840.00,0.0032
1839.00,0.0033
1838.00,0.0033
1837.00,0.0033
1836.00,0.0033
1835.00,0.0033
1834.00,0.0032
1833.00,0.0032
1832.00,0.0031
1831.00,0.0031
1830.00,0.0031
1829.00,0.0031
1828.00,0.0031
1827.00,0.0032
1826.00,0.0032
1825.00,0.0032
1824.00,0.0032
1823.00,0.0032
1822.00,0.0033
1821.00,0.0033
1820.00,0.0032
1819.00,0.0032
1818.00,0.0032
1817.00,0.0031
1816.00,0.0031
1815.00,0.0031
1814.00,0.0032
1813.00,0.0033
1812.00,0.0033
1811.00,0.0033
1810.00,0.0034
1809.00,0.0034
1808.00,0.0033
1807.00,0.0032
1806.00,0.0032
1805.00,0.0032
1804.00,0.0031
1803.00,0.0031
1802.00,0.0032
1801.00,0.0032
1800.00,0.0032
1799.00,0.0033
1798.00,0.0033
1797.00,0.0034
1796.00,0.0033
1795.00,0.0034
1794.00,0.0034
1793.00,0.0033
1792.00,0.0032
1791.00,0.0032
1790.00,0.0032
1789.00,0.0032
1788.00,0.0032
1787.00,0.0032
1786.00,0.0032
1785.00,0.0032
1784.00,0.0032
1783.00,0.0033
1782.00,0.0033
1781.00,0.0034
1780.00,0.0034
1779.00,0.0034
1778.00,0.0033
1777.00,0.0033
1776.00,0.0033
1775.00,0.0034
1774.00,0.0034
1773.00,0.0034
1772.00,0.0034
1771.00,0.0032
1770.00,0.0031
1769.00,0.0031
1768.00,0.0031
1767.00,0.0031
1766.00,0.0032
1765.00,0.0033
1764.00,0.0032
1763.00,0.0031
1762.00,0.0031
1761.00,0.0032
1760.00,0.0032
1759.00,0.0032
1758.00,0.0031
1757.00,0.0031
1756.00,0.0032
1755.00,0.0033
1754.00,0.0034
1753.00,0.0036
1752.00,0.0036
1751.00,0.0036
1750.00,0.0036
1749.00,0.0037
1748.00,0.0037
1747.00,0.0036
1746.00,0.0035
1745.00,0.0035
1744.00,0.0035
1743.00,0.0034
1742.00,0.0034
1741.00,0.0034
1740.00,0.0034
1739.00,0.0034
1738.00,0.0034
1737.00,0.0036
1736.00,0.0039
1735.00,0.0039
1734.00,0.0039
1733.00,0.0038
1732.00,0.0037
1731.00,0.0035
1730.00,0.0034
1729.00,0.0033
1728.00,0.0033
1727.00,0.0033
1726.00,0.0033
1725.00,0.0034
1724.00,0.0033
1723.00,0.0033
1722.00,0.0034
1721.00,0.0033
1720.00,0.0031
1719.00,0.0030
1718.00,0.0031
1717.00,0.0032
1716.00,0.0032
1715.00,0.0032
1714.00,0.0033
1713.00,0.0033
1712.00,0.0033
1711.00,0.0033
1710.00,0.0034
1709.00,0.0034
1708.00,0.0033
1707.00,0.0033
1706.00,0.0033
1705.00,0.0032
1704.00,0.0031
1703.00,0.0034
1702.00,0.0037
1701.00,0.0036
1700.00,0.0035
1699.00,0.0034
1698.00,0.0033
1697.00,0.0032
1696.00,0.0031
1695.00,0.0032
1694.00,0.0033
1693.00,0.0033
1692.00,0.0033
1691.00,0.0033
1690.00,0.0034
1689.00,0.0034
1688.00,0.0033
1687.00,0.0031
1686.00,0.0028
1685.00,0.0025
1684.00,0.0027
1683.00,0.0030
1682.00,0.0032
1681.00,0.0033
1680.00,0.0034
1679.00,0.0034
1678.00,0.0034
1677.00,0.0034
1676.00,0.0034
1675.00,0.0034
1674.00,0.0033
1673.00,0.0032
1672.00,0.0033
1671.00,0.0035
1670.00,0.0035
1669.00,0.0034
1668.00,0.0034
1667.00,0.0033
1666.00,0.0032
1665.00,0.0032
1664.00,0.0033
1663.00,0.0034
1662.00,0.0034
1661.00,0.0033
1660.00,0.0034
1659.00,0.0033
1658.00,0.0032
1657.00,0.0031
1656.00,0.0033
1655.00,0.0031
1654.00,0.0028
1653.00,0.0029
1652.00,0.0034
1651.00,0.0034
1650.00,0.0033
1649.00,0.0033
1648.00,0.0034
1647.00,0.0034
1646.00,0.0034
1645.00,0.0034
1644.00,0.0034
1643.00,0.0034
1642.00,0.0034
1641.00,0.0034
1640.00,0.0034
1639.00,0.0035
1638.00,0.0036
1637.00,0.0037
1636.00,0.0036
1635.00,0.0035
1634.00,0.0035
1633.00,0.0034
1632.00,0.0034
1631.00,0.0035
1630.00,0.0035
1629.00,0.0035
1628.00,0.0035
1627.00,0.0035
1626.00,0.0034
1625.00,0.0034
1624.00,0.0035
1623.00,0.0036
1622.00,0.0035
1621.00,0.0034
1620.00,0.0035
1619.00,0.0036
1618.00,0.0037
1617.00,0.0037
1616.00,0.0037
1615.00,0.0036
1614.00,0.0034
1613.00,0.0033
1612.00,0.0034
1611.00,0.0036
1610.00,0.0036
1609.00,0.0035
1608.00,0.0036
1607.00,0.0036
1606.00,0.0035
1605.00,0.0034
1604.00,0.0035
1603.00,0.0035
1602.00,0.0034
1601.00,0.0034
1600.00,0.0034
1599.00,0.0035
1598.00,0.0035
1597.00,0.0034
1596.00,0.0035
1595.00,0.0035
1594.00,0.0034
1593.00,0.0034
1592.00,0.0034
1591.00,0.0034
1590.00,0.0034
1589.00,0.0033
1588.00,0.0034
1587.00,0.0034
1586.00,0.0034
1585.00,0.0033
1584.00,0.0034
1583.00,0.0034
1582.00,0.0033
1581.00,0.0032
1580.00,0.0033
1579.00,0.0034
1578.00,0.0035
1577.00,0.0035
1576.00,0.0036
1575.00,0.0036
1574.00,0.0034
1573.00,0.0033
1572.00,0.0033
1571.00,0.0034
1570.00,0.0034
1569.00,0.0034
1568.00,0.0035
1567.00,0.0035
1566.00,0.0035
1565.00,0.0034
1564.00,0.0034
1563.00,0.0034
1562.00,0.0033
1561.00,0.0028
1560.00,0.0024
1559.00,0.0025
1558.00,0.0028
1557.00,0.0032
1556.00,0.0033
1555.00,0.0034
1554.00,0.0034
1553.00,0.0034
1552.00,0.0035
1551.00,0.0035
1550.00,0.0034
1549.00,0.0034
1548.00,0.0034
1547.00,0.0034
1546.00,0.0034
1545.00,0.0035
1544.00,0.0037
1543.00,0.0038
1542.00,0.0038
1541.00,0.0035
1540.00,0.0034
1539.00,0.0035
1538.00,0.0036
1537.00,0.0034
1536.00,0.0033
1535.00,0.0034
1534.00,0.0034
1533.00,0.0034
1532.00,0.0034
1531.00,0.0034
1530.00,0.0035
1529.00,0.0034
1528.00,0.0034
1527.00,0.0034
1526.00,0.0034
1525.00,0.0034
1524.00,0.0035
1523.00,0.0036
1522.00,0.0035
1521.00,0.0035
1520.00,0.0034
1519.00,0.0033
1518.00,0.0034
1517.00,0.0035
1516.00,0.0034
1515.00,0.0034
1514.00,0.0034
1513.00,0.0035
1512.00,0.0034
1511.00,0.0034
1510.00,0.0035
1509.00,0.0037
1508.00,0.0037
1507.00,0.0034
1506.00,0.0034
1505.00,0.0036
1504.00,0.0036
1503.00,0.0035
1502.00,0.0035
1501.00,0.0035
1500.00,0.0034
1499.00,0.0034
1498.00,0.0035
1497.00,0.0037
1496.00,0.0037
1495.00,0.0037
1494.00,0.0037
1493.00,0.0037
1492.00,0.0036
1491.00,0.0036
1490.00,0.0037
1489.00,0.0037
1488.00,0.0036
1487.00,0.0036
1486.00,0.0036
1485.00,0.0036
1484.00,0.0036
1483.00,0.0036
1482.00,0.0037
1481.00,0.0037
1480.00,0.0036
1479.00,0.0036
1478.00,0.0036
1477.00,0.0035
1476.00,0.0035
1475.00,0.0036
1474.00,0.0037
1473.00,0.0038
1472.00,0.0037
1471.00,0.0037
1470.00,0.0037
1469.00,0.0036
1468.00,0.0036
1467.00,0.0036
1466.00,0.0037
1465.00,0.0037
1464.00,0.0036
1463.00,0.0036
1462.00,0.0036
1461.00,0.0036
1460.00,0.0037
1459.00,0.0039
1458.00,0.0041
1457.00,0.0042
1456.00,0.0042
1455.00,0.0040
1454.00,0.0037
1453.00,0.0036
1452.00,0.0036
1451.00,0.0036
1450.00,0.0035
1449.00,0.0035
1448.00,0.0035
1447.00,0.0034
1446.00,0.0034
1445.00,0.0035
1444.00,0.0035
1443.00,0.0035
1442.00,0.0034
1441.00,0.0035
1440.00,0.0036
1439.00,0.0036
1438.00,0.0036
1437.00,0.0037
1436.00,0.0037
1435.00,0.0036
1434.00,0.0035
1433.00,0.0036
1432.00,0.0036
1431.00,0.0036
1430.00,0.0035
1429.00,0.0035
1428.00,0.0035
1427.00,0.0035
1426.00,0.0035
1425.00,0.0036
1424.00,0.0037
1423.00,0.0037
1422.00,0.0036
1421.00,0.0038
1420.00,0.0039
1419.00,0.0038
1418.00,0.0037
1417.00,0.0037
1416.00,0.0037
1415.00,0.0036
1414.00,0.0036
1413.00,0.0036
1412.00,0.0037
1411.00,0.0036
1410.00,0.0035
1409.00,0.0035
1408.00,0.0035
1407.00,0.0035
1406.00,0.0035
1405.00,0.0035
1404.00,0.0036
1403.00,0.0035
1402.00,0.0035
1401.00,0.0035
1400.00,0.0035
1399.00,0.0036
1398.00,0.0035
1397.00,0.0035
1396.00,0.0035
1395.00,0.0034
1394.00,0.0033
1393.00,0.0034
1392.00,0.0036
1391.00,0.0036
1390.00,0.0035
1389.00,0.0034
1388.00,0.0034
1387.00,0.0035
1386.00,0.0035
1385.00,0.0035
1384.00,0.0036
1383.00,0.0036
1382.00,0.0036
1381.00,0.0036
1380.00,0.0035
1379.00,0.0035
1378.00,0.0035
1377.00,0.0035
1376.00,0.0035
1375.00,0.0035
1374.00,0.0035
1373.00,0.0034
1372.00,0.0034
1371.00,0.0035
1370.00,0.0035
1369.00,0.0035
1368.00,0.0035
1367.00,0.0034
1366.00,0.0034
1365.00,0.0033
1364.00,0.0033
1363.00,0.0033
1362.00,0.0032
1361.00,0.0032
1360.00,0.0033
1359.00,0.0034
1358.00,0.0034
1357.00,0.0035
1356.00,0.0035
1355.00,0.0035
1354.00,0.0035
1353.00,0.0035
1352.00,0.0035
1351.00,0.0036
1350.00,0.0036
1349.00,0.0036
1348.00,0.0035
1347.00,0.0035
1346.00,0.0034
1345.00,0.0034
1344.00,0.0034
1343.00,0.0034
1342.00,0.0034
1341.00,0.0035
1340.00,0.0036
1339.00,0.0036
1338.00,0.0035
1337.00,0.0035
1336.00,0.0035
1335.00,0.0035
1334.00,0.0035
1333.00,0.0035
1332.00,0.0035
1331.00,0.0034
1330.00,0.0034
1329.00,0.0034
1328.00,0.0035
1327.00,0.0035
1326.00,0.0035
1325.00,0.0035
1324.00,0.0035
1323.00,0.0035
1322.00,0.0035
1321.00,0.0036
1320.00,0.0036
1319.00,0.0036
1318.00,0.0036
1317.00,0.0035
1316.00,0.0036
1315.00,0.0036
1314.00,0.0036
1313.00,0.0036
1312.00,0.0036
1311.00,0.0036
1310.00,0.0036
1309.00,0.0036
1308.00,0.0036
1307.00,0.0036
1306.00,0.0036
1305.00,0.0037
1304.00,0.0037
1303.00,0.0037
1302.00,0.0036
1301.00,0.0036
1300.00,0.0036
1299.00,0.0036
1298.00,0.0036
1297.00,0.0036
1296.00,0.0036
1295.00,0.0036
1294.00,0.0036
1293.00,0.0037
1292.00,0.0037
1291.00,0.0037
1290.00,0.0037
1289.00,0.0037
1288.00,0.0037
1287.00,0.0036
1286.00,0.0036
1285.00,0.0036
1284.00,0.0037
1283.00,0.0037
1282.00,0.0037
1281.00,0.0036
1280.00,0.0036
1279.00,0.0035
1278.00,0.0035
1277.00,0.0036
1276.00,0.0036
1275.00,0.0037
1274.00,0.0037
1273.00,0.0037
1272.00,0.0037
1271.00,0.0037
1270.00,0.0037
1269.00,0.0037
1268.00,0.0037
1267.00,0.0037
1266.00,0.0036
1265.00,0.0036
1264.00,0.0036
1263.00,0.0037
1262.00,0.0036
1261.00,0.0036
1260.00,0.0037
1259.00,0.0037
1258.00,0.0037
1257.00,0.0037
1256.00,0.0037
1255.00,0.0037
1254.00,0.0037
1253.00,0.0037
1252.00,0.0037
1251.00,0.0037
1250.00,0.0037
1249.00,0.0037
1248.00,0.0037
1247.00,0.0038
1246.00,0.0038
1245.00,0.0038
1244.00,0.0038
1243.00,0.0038
1242.00,0.0038
1241.00,0.0038
1240.00,0.0038
1239.00,0.0038
1238.00,0.0038
1237.00,0.0038
1236.00,0.0038
1235.00,0.0038
1234.00,0.0038
1233.00,0.0038
1232.00,0.0038
1231.00,0.0038
1230.00,0.0038
1229.00,0.0038
1228.00,0.0038
1227.00,0.0039
1226.00,0.0039
1225.00,0.0038
1224.00,0.0038
1223.00,0.0038
1222.00,0.0038
1221.00,0.0038
1220.00,0.0038
1219.00,0.0038
1218.00,0.0038
1217.00,0.0038
1216.00,0.0038
1215.00,0.0038
1214.00,0.0039
1213.00,0.0039
1212.00,0.0040
1211.00,0.0040
1210.00,0.0039
1209.00,0.0039
1208.00,0.0039
1207.00,0.0039
1206.00,0.0039
1205.00,0.0039
1204.00,0.0039
1203.00,0.0039
1202.00,0.0040
1201.00,0.0040
1200.00,0.0040
1199.00,0.0040
1198.00,0.0040
1197.00,0.0040
1196.00,0.0041
1195.00,0.0040
1194.00,0.0040
1193.00,0.0039
1192.00,0.0040
1191.00,0.0040
1190.00,0.0040
1189.00,0.0040
1188.00,0.0040
1187.00,0.0040
1186.00,0.0039
1185.00,0.0039
1184.00,0.0039
1183.00,0.0039
1182.00,0.0039
1181.00,0.0040
1180.00,0.0040
1179.00,0.0040
1178.00,0.0040
1177.00,0.0040
1176.00,0.0040
1175.00,0.0039
1174.00,0.0039
1173.00,0.0039
1172.00,0.0039
1171.00,0.0040
1170.00,0.0040
1169.00,0.0041
1168.00,0.0042
1167.00,0.0043
1166.00,0.0043
1165.00,0.0043
1164.00,0.0043
1163.00,0.0042
1162.00,0.0042
1161.00,0.0042
1160.00,0.0042
1159.00,0.0042
1158.00,0.0043
1157.00,0.0043
1156.00,0.0043
1155.00,0.0044
1154.00,0.0043
1153.00,0.0043
1152.00,0.0043
1151.00,0.0042
1150.00,0.0042
1149.00,0.0042
1148.00,0.0042
1147.00,0.0042
1146.00,0.0043
1145.00,0.0043
1144.00,0.0044
1143.00,0.0044
1142.00,0.0043
1141.00,0.0043
1140.00,0.0043
1139.00,0.0043
1138.00,0.0043
1137.00,0.0043
1136.00,0.0042
1135.00,0.0042
1134.00,0.0042
1133.00,0.0043
1132.00,0.0044
1131.00,0.0044
1130.00,0.0043
1129.00,0.0042
1128.00,0.0042
1127.00,0.0042
1126.00,0.0041
1125.00,0.0041
1124.00,0.0042
1123.00,0.0043
1122.00,0.0043
1121.00,0.0044
1120.00,0.0044
1119.00,0.0044
1118.00,0.0044
1117.00,0.0044
1116.00,0.0044
1115.00,0.0044
1114.00,0.0045
1113.00,0.0045
1112.00,0.0046
1111.00,0.0047
1110.00,0.0047
1109.00,0.0048
1108.00,0.0049
1107.00,0.0048
1106.00,0.0048
1105.00,0.0048
1104.00,0.0048
1103.00,0.0049
1102.00,0.0050
1101.00,0.0051
1100.00,0.0051
1099.00,0.0051
1098.00,0.0051
1097.00,0.0051
1096.00,0.0050
1095.00,0.0049
1094.00,0.0048
1093.00,0.0047
1092.00,0.0047
1091.00,0.0047
1090.00,0.0048
1089.00,0.0049
1088.00,0.0050
1087.00,0.0050
1086.00,0.0049
1085.00,0.0048
1084.00,0.0049
1083.00,0.0049
1082.00,0.0050
1081.00,0.0051
1080.00,0.0052
1079.00,0.0052
1078.00,0.0053
1077.00,0.0053
1076.00,0.0053
1075.00,0.0053
1074.00,0.0053
1073.00,0.0054
1072.00,0.0055
1071.00,0.0055
1070.00,0.0055
1069.00,0.0056
1068.00,0.0058
1067.00,0.0058
1066.00,0.0058
1065.00,0.0058
1064.00,0.0058
1063.00,0.0057
1062.00,0.0057
1061.00,0.0056
1060.00,0.0056
1059.00,0.0056
1058.00,0.0056
1057.00,0.0056
1056.00,0.0057
1055.00,0.0056
1054.00,0.0056
1053.00,0.0057
1052.00,0.0060
1051.00,0.0061
1050.00,0.0063
1049.00,0.0064
1048.00,0.0065
1047.00,0.0064
1046.00,0.0064
1045.00,0.0064
1044.00,0.0065
1043.00,0.0064
1042.00,0.0062
1041.00,0.0060
1040.00,0.0058
1039.00,0.0056
1038.00,0.0055
1037.00,0.0055
1036.00,0.0056
1035.00,0.0056
1034.00,0.0057
1033.00,0.0059
1032.00,0.0060
1031.00,0.0060
1030.00,0.0060
1029.00,0.0061
1028.00,0.0062
1027.00,0.0063
1026.00,0.0063
1025.00,0.0064
1024.00,0.0065
1023.00,0.0065
1022.00,0.0065
1021.00,0.0067
1020.00,0.0069
1019.00,0.0072
1018.00,0.0072
1017.00,0.0070
1016.00,0.0066
1015.00,0.0062
1014.00,0.0061
1013.00,0.0062
1012.00,0.0064
1011.00,0.0065
1010.00,0.0066
1009.00,0.0067
1008.00,0.0069
1007.00,0.0070
1006.00,0.0070
1005.00,0.0070
1004.00,0.0069
1003.00,0.0068
1002.00,0.0068
1001.00,0.0072
1000.00,0.0077
999.00,0.0081
998.00,0.0083
997.00,0.0083
996.00,0.0082
995.00,0.0081
994.00,0.0082
993.00,0.0083
992.00,0.0083
991.00,0.0078
990.00,0.0072
989.00,0.0069
988.00,0.0068
987.00,0.0067
986.00,0.0068
985.00,0.0072
984.00,0.0078
983.00,0.0082
982.00,0.0083
981.00,0.0080
980.00,0.0076
979.00,0.0070
978.00,0.0070
977.00,0.0075
976.00,0.0082
975.00,0.0084
974.00,0.0084
973.00,0.0086
972.00,0.0090
971.00,0.0092
970.00,0.0091
969.00,0.0091
968.00,0.0090
967.00,0.0087
966.00,0.0085
965.00,0.0087
964.00,0.0091
963.00,0.0092
962.00,0.0090
961.00,0.0091
960.00,0.0098
959.00,0.0106
958.00,0.0112
957.00,0.0117
956.00,0.0117
955.00,0.0109
954.00,0.0099
953.00,0.0095
952.00,0.0098
951.00,0.0101
950.00,0.0097
949.00,0.0089
948.00,0.0079
947.00,0.0070
946.00,0.0070
945.00,0.0084
944.00,0.0104
943.00,0.0119
942.00,0.0127
941.00,0.0133
940.00,0.0135
939.00,0.0122
938.00,0.0102
937.00,0.0092
936.00,0.0103
935.00,0.0127
934.00,0.0151
933.00,0.0162
932.00,0.0148
931.00,0.0109
930.00,0.0068
929.00,0.0055
928.00,0.0068
927.00,0.0083
926.00,0.0090
925.00,0.0106
924.00,0.0139
923.00,0.0177
922.00,0.0208
921.00,0.0229
920.00,0.0231
919.00,0.0203
918.00,0.0169
917.00,0.0164
916.00,0.0182
915.00,0.0183
914.00,0.0147
913.00,0.0098
912.00,0.0066
911.00,0.0062
910.00,0.0086
909.00,0.0128
908.00,0.0158
907.00,0.0143
906.00,0.0107
905.00,0.0109
904.00,0.0159
903.00,0.0208
902.00,0.0218
901.00,0.0196
900.00,0.0145
899.00,0.0058
898.00,-0.0024
897.00,-0.0029
896.00,0.0022
895.00,0.0041
894.00,0.0037
893.00,0.0088
892.00,0.0198
891.00,0.0232
890.00,0.0153
889.00,0.0045
888.00,-0.0110
887.00,-0.0241
886.00,-0.0278
885.00,-0.0215
884.00,0.0102
883.00,0.0570
882.00,0.0774
881.00,0.0804
880.00,0.0767
879.00,0.0540
878.00,0.0407
877.00,0.0303
876.00,0.0216
875.00,0.0588
874.00,0.0908
873.00,0.1185
872.00,0.0561
871.00,-0.0810
870.00,-0.1877
869.00,-0.3081
868.00,-0.3782
867.00,-0.3361
866.00,-0.2266
865.00,-0.1205
864.00,-0.0718
863.00,-0.0643
862.00,-0.1242
861.00,-0.2894
860.00,-0.4448
859.00,-0.4858
858.00,-0.3344
857.00,-0.2506
856.00,-0.1279
855.00,0.0322
854.00,0.0934
853.00,0.0690
852.00,0.0936
851.00,0.0470
850.00,0.0001
849.00,0.0180
848.00,0.0920
847.00,0.3173
846.00,0.1762
845.00,0.4504
844.00,0.4718
843.00,0.2088
842.00,-0.1804
841.00,-0.2933
840.00,-0.2718
839.00,-0.2681
838.00,-0.2034
837.00,-0.2823
836.00,-0.2930
835.00,-0.2920
834.00,-0.2648
833.00,-0.2114
832.00,-0.2043
831.00,-0.5451
830.00,-1.0212
829.00,-0.9394
828.00,-0.1066
827.00,0.3520
826.00,-0.0180
825.00,0.3666
824.00,0.2789
823.00,-0.0619
822.00,-0.2273
821.00,-0.1453
820.00,-0.1135
819.00,-0.1458
818.00,-0.1637
817.00,-0.0610
816.00,0.0175
815.00,0.1360
814.00,0.5438
813.00,0.1872
812.00,0.0611
811.00,0.0819
810.00,0.1405
809.00,0.1326
808.00,0.1067
807.00,0.1345
806.00,-0.0618
805.00,-0.2893
804.00,-0.2776
803.00,-0.3248
802.00,-0.3827
801.00,-0.2402
800.00,-0.0860
799.00,0.1504
798.00,0.8557
797.00,0.8458
796.00,0.4522
795.00,0.0145
794.00,-0.4275
793.00,-0.3398
792.00,-0.2410
791.00,-0.2543
790.00,-0.2049
789.00,-0.0673
788.00,-0.0281
787.00,-0.0295
786.00,-0.2069
785.00,-0.4032
784.00,-0.6315
783.00,-0.8513
782.00,-0.5490
781.00,-0.0744
780.00,0.1667
779.00,0.3569
778.00,0.3990
777.00,-0.2016
776.00,-0.2674
775.00,-0.6508
774.00,-1.1103
773.00,-0.6877
772.00,-0.4218
771.00,-0.6601
770.00,-0.8472
769.00,-0.5690
768.00,-0.2389
767.00,-0.2450
766.00,-0.1164
765.00,-0.0444
764.00,0.0168
763.00,-0.0056
762.00,-0.1531
761.00,-0.1765
760.00,-0.0946
759.00,0.0080
758.00,0.1989
757.00,0.1200
756.00,-0.0063
755.00,-0.1083
754.00,-0.1998
753.00,-0.1531
752.00,-0.1047
751.00,-0.1007
750.00,-0.1140
749.00,-0.1279
748.00,-0.1336
747.00,-0.0937
746.00,-0.1202
745.00,-0.1902
744.00,-0.2285
743.00,-0.1942
742.00,-0.5024
741.00,-0.5937
740.00,-0.6444
739.00,-1.0285
738.00,-0.4867
737.00,-0.6055
736.00,-0.1270
735.00,0.4033
734.00,0.1777
733.00,0.2835
732.00,0.0504
731.00,-0.0355
730.00,-0.3421
729.00,-0.3399
728.00,-0.2812
727.00,-0.3437
726.00,-0.3773
725.00,-0.2475
724.00,-0.1535
723.00,-0.1876
722.00,-0.5120
721.00,-0.5792
720.00,-0.4471
719.00,-0.4195
718.00,-0.3785
717.00,-0.3382
716.00,-0.1838
715.00,-0.1284
714.00,-0.0126
713.00,0.1059
712.00,0.1325
711.00,0.1582
710.00,0.1371
709.00,0.0275
708.00,-0.0738
707.00,-0.1690
706.00,-0.2732
705.00,-0.2655
704.00,-0.1916
703.00,-0.1442
702.00,-0.0546
701.00,-0.0160
700.00,-0.0576
699.00,-0.2319
698.00,-0.6377
697.00,-0.7925
696.00,-0.7489
695.00,-0.6221
694.00,-0.2192
693.00,-0.0983
692.00,-0.1414
691.00,-0.1909
690.00,-0.3078
689.00,-0.2424
688.00,-0.1944
687.00,-0.1857
686.00,-0.1013
685.00,-0.0378
684.00,-0.1121
683.00,-0.2569
682.00,-0.3258
681.00,-0.3398
680.00,-0.2442
679.00,-0.0430
678.00,0.2684
677.00,0.2790
676.00,0.1854
675.00,0.1587
674.00,0.0892
673.00,-0.0426
672.00,-0.0920
671.00,-0.0589
670.00,0.0050
669.00,-0.0141
668.00,-0.0604
667.00,-0.0496
666.00,0.0181
665.00,-0.0862
664.00,-0.2011
663.00,-0.3477
662.00,-0.3609
661.00,-0.0492
660.00,0.1734
659.00,0.3373
658.00,0.6314
657.00,0.2493
656.00,0.0452
655.00,-0.2386
654.00,-0.7097
653.00,-0.6272
652.00,-0.4703
651.00,-0.5156
650.00,-0.5355
649.00,-0.2184
648.00,-0.0805
647.00,-0.1143
646.00,-0.1049
645.00,-0.0511
644.00,0.0106
643.00,0.0366
642.00,0.0309
641.00,-0.0373
640.00,-0.0685
639.00,-0.1821
638.00,-0.4613
637.00,-0.3861
636.00,-0.1475
635.00,0.0364
634.00,0.0518
633.00,0.0745
632.00,0.0928
631.00,-0.0138
630.00,-0.4274
629.00,-0.4673
628.00,-0.3471
627.00,-0.3638
626.00,-0.1865
625.00,-0.0535
624.00,-0.0531
623.00,-0.0052
622.00,0.1448
621.00,0.2379
620.00,0.1194
619.00,0.0717
618.00,0.0086
617.00,-0.0755
616.00,-0.0757
615.00,-0.0582
614.00,-0.0408
613.00,-0.1096
612.00,-0.1380
611.00,-0.2453
610.00,-0.4981
609.00,-0.2302
608.00,-0.0447
607.00,-0.0014
606.00,0.0270
605.00,-0.0315
604.00,-0.0882
603.00,-0.1885
602.00,-0.2775
601.00,-0.1278
600.00,0.0258
599.00,0.0279
598.00,-0.0361
597.00,0.0255
596.00,-0.0200
595.00,-0.0454
594.00,-0.0135
593.00,-0.0702
592.00,-0.1562
591.00,-0.3253
590.00,-0.5405
589.00,-0.4184
588.00,-0.0969
587.00,0.0490
586.00,0.1838
585.00,0.1465
584.00,0.0951
583.00,0.0345
582.00,-0.0872
581.00,-0.0049
580.00,-0.0379
579.00,-0.2277
578.00,-0.4906
577.00,-0.5769
576.00,-0.4744
575.00,-0.4787
574.00,-0.3400
573.00,0.1058
572.00,0.1089
571.00,0.0169
570.00,0.0118
569.00,-0.0166
568.00,-0.0514
567.00,-0.0576
566.00,-0.0208
565.00,-0.0341
564.00,-0.0820
563.00,-0.1596
562.00,-0.4305
561.00,-0.4655
560.00,-0.3324
559.00,-0.2551
558.00,-0.0231
557.00,-0.0413
556.00,-0.0634
555.00,0.0030
554.00,0.0308
553.00,-0.0089
552.00,-0.0448
551.00,-0.0615
550.00,-0.0747
549.00,-0.0567
548.00,-0.0313
547.00,-0.0509
546.00,-0.2202
545.00,-0.4531
544.00,-0.5196
543.00,-0.7197
542.00,-0.8372
541.00,-0.6116
540.00,-0.4584
539.00,-0.8194
538.00,-0.9501
537.00,-0.5033
536.00,-0.1534
535.00,-0.1296
534.00,-0.1059
533.00,-0.0421
532.00,0.0301
531.00,0.0670
530.00,-0.0580
529.00,-0.0954
528.00,-0.0992
527.00,-0.0846
526.00,0.3536
525.00,-0.2262
524.00,-0.4572
523.00,-0.4212
522.00,-0.2254
521.00,0.0416
520.00,0.0737
519.00,0.0860
518.00,-0.0244
517.00,-0.1583
516.00,-0.2320
515.00,-0.2134
514.00,0.1690
513.00,0.1632
512.00,0.0788
511.00,-0.0026
510.00,-0.2213
509.00,-0.2010
508.00,-0.1250
507.00,0.0380
506.00,0.5666
505.00,0.3995
504.00,0.1563
503.00,-0.0030
502.00,-0.2500
501.00,-0.1542
500.00,-0.0240
499.00,0.0866
498.00,0.1460
497.00,0.0578
496.00,-0.0299
495.00,-0.1196
494.00,-0.2141
493.00,-0.1505
492.00,-0.1267
491.00,-0.2665
490.00,-0.5012
489.00,-0.5271
488.00,-0.4045
487.00,-0.3868
486.00,-0.3641
485.00,-0.2849
484.00,-0.2991
483.00,-0.3952
482.00,-0.2090
481.00,-0.2798
480.00,-0.4162
479.00,-0.4427
478.00,-0.1572
477.00,0.4195
476.00,0.5342
475.00,0.8125
474.00,0.3860
473.00,-0.1646
472.00,-0.5489
471.00,-1.0646
470.00,-0.1718
469.00,-0.2389
468.00,-0.8326
467.00,-0.3079
466.00,-0.0422
465.00,0.0634
464.00,0.0453
463.00,0.0684
462.00,0.2175
461.00,0.1440
460.00,0.0887
459.00,0.1239
458.00,0.2750
457.00,0.3082
456.00,0.2474
455.00,0.1888
454.00,-0.2617
453.00,-0.3409
452.00,-0.3220
451.00,-0.3821
450.00,-0.3666
