Data from USB4F034991__0__10-38-56-658.txt Node

Date: Tue Sep 23 10:38:56 EDT 2025
User: brett
Spectrometer: USB4F03499
Trigger mode: 4
Integration Time (sec): 4.000000E-5
Scans to average: 1
Electric dark correction enabled: true
Nonlinearity correction enabled: true
Boxcar width: 0
XAxis mode: Wavelengths
Number of Pixels in Spectrum: 3648
>>>>>Begin Spectral Data<<<<<
320	0
320.225	0
320.449	0
320.674	0
320.898	0
321.123	0
321.347	0
321.572	0
321.796	0
322.021	0
322.245	0
322.469	0
322.694	0
322.918	0
323.143	0
323.367	0
323.591	0
323.815	0
324.04	0
324.264	0
324.488	0
324.712	0
324.936	0
325.161	0
325.385	0
325.609	0
325.833	0
326.057	0
326.281	0
326.505	0
326.729	0
326.953	0
327.177	0
327.401	0
327.625	0
327.849	0
328.073	0
328.297	0
328.521	0
328.744	0
328.968	0
329.192	0
329.416	0
329.64	0
329.863	0
330.087	0
330.311	0
330.535	0
330.758	0
330.982	0
331.205	0
331.429	0
331.653	0
331.876	0
332.1	0
332.323	0
332.547	0
332.77	0
332.994	0
333.217	0
333.441	0
333.664	0
333.887	0
334.111	0
334.334	0
334.557	0
334.781	0
335.004	0
335.227	0
335.451	0
335.674	0
335.897	0
336.12	0
336.343	0
336.567	0
336.79	0
337.013	0
337.236	0
337.459	0
337.682	0
337.905	0
338.128	0
338.351	0
338.574	0
338.797	0
339.02	0
339.243	0
339.466	0
339.689	0
339.911	0
340.134	0
340.357	0
340.58	0
340.803	0
341.025	0
341.248	0
341.471	0
341.694	0
341.916	0
342.139	0
342.362	0
342.584	0
342.807	0
343.029	0
343.252	0
343.475	0
343.697	0
343.92	0
344.142	0
344.365	0
344.587	0
344.809	0
345.032	0
345.254	0
345.477	0
345.699	0
345.921	0
346.144	0
346.366	0
346.588	0
346.81	0
347.033	0
347.255	0
347.477	0
347.699	0
347.921	0
348.144	0
348.366	0
348.588	0
348.81	0
349.032	0
349.254	0
349.476	0
349.698	0
349.92	0
350.142	0
350.364	0
350.586	0
350.808	0
351.029	0
351.251	0
351.473	0
351.695	0
351.917	0
352.139	0
352.36	0
352.582	0
352.804	0
353.026	0
353.247	0
353.469	-61603.47519
353.691	0
353.912	6557.40525
354.134	6541.57299
354.355	6531.70511
354.577	6539.59773
354.798	6551.46184
355.02	6523.82586
355.242	6515.95997
355.463	6541.57299
355.684	6537.62332
355.906	6535.64975
356.127	6531.70511
356.349	6559.38807
356.57	6539.59773
356.792	6535.64975
357.013	6519.89125
357.234	6529.73404
357.456	6521.85814
357.677	6500.2681
357.898	6513.99558
358.119	6549.48239
358.341	6531.70511
358.562	6539.59773
358.783	6557.40525
359.004	6557.40525
359.225	6531.70511
359.447	6521.85814
359.668	6527.76381
359.889	6508.10739
360.11	6517.92519
360.331	6523.82586
360.552	6539.59773
360.773	6515.95997
360.994	6539.59773
361.215	6531.70511
361.436	6519.89125
361.657	6517.92519
361.878	6531.70511
362.099	6535.64975
362.32	6533.67701
362.54	6539.59773
362.761	6512.03202
362.982	6551.46184
363.203	6539.59773
363.424	6531.70511
363.645	6515.95997
363.865	6541.57299
364.086	6543.54908
364.307	6523.82586
364.527	6551.46184
364.748	6547.50378
364.969	6525.79442
365.189	6545.52601
365.41	6523.82586
365.631	6535.64975
365.851	6539.59773
366.072	6549.48239
366.292	6541.57299
366.513	6531.70511
366.733	6531.70511
366.954	6559.38807
367.174	6531.70511
367.395	6525.79442
367.615	6559.38807
367.836	6535.64975
368.056	6555.42327
368.276	6523.82586
368.497	6543.54908
368.717	6549.48239
368.937	6543.54908
369.158	6543.54908
369.378	6523.82586
369.598	6529.73404
369.818	6537.62332
370.038	6527.76381
370.259	6537.62332
370.479	6549.48239
370.699	6519.89125
370.919	6535.64975
371.139	6535.64975
371.359	6523.82586
371.579	6535.64975
371.799	6545.52601
372.02	6535.64975
372.24	6541.57299
372.46	6531.70511
372.68	6535.64975
372.899	6559.38807
373.119	6547.50378
373.339	6557.40525
373.559	6545.52601
373.779	6573.29148
373.999	6543.54908
374.219	6510.06929
374.439	6529.73404
374.658	6537.62332
374.878	6553.44214
375.098	6551.46184
375.318	6555.42327
375.538	6535.64975
375.757	6567.3278
375.977	6525.79442
376.197	6531.70511
376.416	6545.52601
376.636	6549.48239
376.855	6567.3278
377.075	6543.54908
377.295	6533.67701
377.514	6565.3416
377.734	6531.70511
377.953	6553.44214
378.173	6577.2715
378.392	6549.48239
378.612	6539.59773
378.831	6539.59773
379.051	6551.46184
379.27	6563.35625
379.489	6565.3416
379.709	6541.57299
379.928	6569.31485
380.147	6512.03202
380.367	6549.48239
380.586	6563.35625
380.805	6561.37174
381.024	6545.52601
381.244	6541.57299
381.463	6543.54908
381.682	6565.3416
381.901	6567.3278
382.12	6571.30274
382.34	6587.2364
382.559	6551.46184
382.778	6529.73404
382.997	6539.59773
383.216	6569.31485
383.435	6545.52601
383.654	6547.50378
383.873	6547.50378
384.092	6541.57299
384.311	6567.3278
384.53	6561.37174
384.749	6555.42327
384.968	6575.28106
385.187	6563.35625
385.405	6559.38807
385.624	6543.54908
385.843	6575.28106
386.062	6579.26278
386.281	6559.38807
386.499	6555.42327
386.718	6577.2715
386.937	6563.35625
387.156	6547.50378
387.374	6571.30274
387.593	6577.2715
387.812	6551.46184
388.03	6589.23193
388.249	6559.38807
388.467	6549.48239
388.686	6577.2715
388.905	6553.44214
389.123	6567.3278
389.342	6561.37174
389.56	6541.57299
389.779	6553.44214
389.997	6553.44214
390.216	6567.3278
390.434	6567.3278
390.652	6555.42327
390.871	6575.28106
391.089	6569.31485
391.307	6555.42327
391.526	6575.28106
391.744	6559.38807
391.962	6561.37174
392.181	6545.52601
392.399	6551.46184
392.617	6553.44214
392.835	6563.35625
393.054	6569.31485
393.272	6559.38807
393.49	6569.31485
393.708	6563.35625
393.926	6563.35625
394.144	6571.30274
394.362	6567.3278
394.58	6537.62332
394.798	6587.2364
395.016	6575.28106
395.234	6581.25491
395.452	6583.24789
395.67	6575.28106
395.888	6607.23009
396.106	6567.3278
396.324	6593.22555
396.542	6589.23193
396.76	6573.29148
396.978	6581.25491
397.196	6603.22452
397.413	6555.42327
397.631	6557.40525
397.849	6581.25491
398.067	6559.38807
398.284	6611.23909
398.502	6555.42327
398.72	6571.30274
398.938	6605.22688
399.155	6559.38807
399.373	6575.28106
399.59	6575.28106
399.808	6587.2364
400.026	6581.25491
400.243	6567.3278
400.461	6557.40525
400.678	6593.22555
400.896	6575.28106
401.113	6571.30274
401.331	6563.35625
401.548	6589.23193
401.766	6559.38807
401.983	6553.44214
402.2	6607.23009
402.418	6581.25491
402.635	6581.25491
402.853	6593.22555
403.07	6559.38807
403.287	6559.38807
403.504	6587.2364
403.722	6555.42327
403.939	6591.22831
404.156	6547.50378
404.373	6573.29148
404.591	6573.29148
404.808	6579.26278
405.025	6565.3416
405.242	6541.57299
405.459	6577.2715
405.676	6555.42327
405.893	6555.42327
406.11	6583.24789
406.327	6577.2715
406.544	6587.2364
406.761	6575.28106
406.978	6559.38807
407.195	6601.22302
407.412	6579.26278
407.629	6565.3416
407.846	6565.3416
408.063	6561.37174
408.28	6557.40525
408.497	6567.3278
408.713	6603.22452
408.93	6587.2364
409.147	6591.22831
409.364	6579.26278
409.58	6579.26278
409.797	6583.24789
410.014	6595.22363
410.231	6577.2715
410.447	6587.2364
410.664	6591.22831
410.881	6561.37174
411.097	6579.26278
411.314	6585.24172
411.53	6611.23909
411.747	6595.22363
411.963	6571.30274
412.18	6567.3278
412.396	6567.3278
412.613	6571.30274
412.829	6583.24789
413.046	6605.22688
413.262	6585.24172
413.479	6603.22452
413.695	6595.22363
413.911	6567.3278
414.128	6615.25151
414.344	6573.29148
414.56	6583.24789
414.777	6623.28667
414.993	6617.25901
415.209	6611.23909
415.426	6623.28667
415.642	6603.22452
415.858	6611.23909
416.074	6621.27659
416.29	6619.26737
416.506	6619.26737
416.723	6637.38134
416.939	6599.22237
417.155	6601.22302
417.371	6605.22688
417.587	6615.25151
417.803	6603.22452
418.019	6647.47488
418.235	6621.27659
418.451	6631.33559
418.667	6585.24172
418.883	6615.25151
419.099	6617.25901
419.315	6621.27659
419.53	6643.43487
419.746	6603.22452
419.962	6629.32207
420.178	6613.24487
420.394	6635.36523
420.61	6621.27659
420.825	6627.30941
421.041	6611.23909
421.257	6621.27659
421.473	6639.39832
421.688	6635.36523
421.904	6623.28667
422.12	6591.22831
422.335	6591.22831
422.551	6621.27659
422.766	6585.24172
422.982	6627.30941
423.198	6619.26737
423.413	6625.29761
423.629	6637.38134
423.844	6667.72703
424.06	6637.38134
424.275	6605.22688
424.49	6625.29761
424.706	6631.33559
424.921	6645.45444
425.137	6631.33559
425.352	6647.47488
425.567	6653.5414
425.783	6631.33559
425.998	6629.32207
426.213	6627.30941
426.429	6627.30941
426.644	6661.64225
426.859	6655.56531
427.074	6645.45444
427.29	6619.26737
427.505	6655.56531
427.72	6647.47488
427.935	6653.5414
428.15	6623.28667
428.365	6627.30941
428.58	6629.32207
428.795	6665.6979
429.01	6635.36523
429.226	6669.75704
429.441	6673.81967
429.656	6669.75704
429.87	6663.66964
430.085	6665.6979
430.3	6645.45444
430.515	6647.47488
430.73	6643.43487
430.945	6671.78792
431.16	6653.5414
431.375	6659.61573
431.59	6692.14481
431.804	6690.10518
432.019	6641.41616
432.234	6673.81967
432.449	6673.81967
432.663	6679.92016
432.878	6665.6979
433.093	6675.85229
433.308	6653.5414
433.522	6649.49618
433.737	6649.49618
433.951	6669.75704
434.166	6645.45444
434.381	6675.85229
434.595	6635.36523
434.81	6671.78792
435.024	6653.5414
435.239	6667.72703
435.453	6712.58959
435.668	6679.92016
435.882	6677.88579
436.097	6714.63892
436.311	6679.92016
436.525	6706.44689
436.74	6690.10518
436.954	6692.14481
437.169	6667.72703
437.383	6704.4011
437.597	6706.44689
437.811	6692.14481
438.026	6720.79223
438.24	6712.58959
438.454	6712.58959
438.668	6710.54114
438.883	6706.44689
439.097	6733.1228
439.311	6681.95541
439.525	6710.54114
439.739	6692.14481
439.953	6673.81967
440.167	6726.95351
440.381	6706.44689
440.595	6708.49357
440.809	6704.4011
441.023	6702.35618
441.237	6724.89886
441.451	6696.22672
441.665	6708.49357
441.879	6722.8451
442.093	6747.54895
442.307	6704.4011
442.521	6733.1228
442.735	6739.30008
442.949	6739.30008
443.163	6722.8451
443.376	6770.30719
443.59	6749.6134
443.804	6749.6134
444.018	6741.36096
444.231	6755.81212
444.445	6757.88016
444.659	6747.54895
444.872	6747.54895
445.086	6774.45673
445.3	6774.45673
445.513	6766.16125
445.727	6768.23377
445.94	6759.94908
446.154	6747.54895
446.368	6770.30719
446.581	6774.45673
446.795	6766.16125
447.008	6743.42273
447.222	6807.78318
447.435	6772.38151
447.648	6782.76662
447.862	6784.84636
448.075	6811.96532
448.289	6803.60468
448.502	6786.92699
448.715	6778.60987
448.929	6832.93081
449.142	6782.76662
449.355	6803.60468
449.568	6795.25858
449.782	6826.63156
449.995	6805.69347
450.208	6780.6878
450.421	6805.69347
450.634	6832.93081
450.848	6826.63156
451.061	6853.98801
451.274	6851.87815
451.487	6892.12397
451.7	6862.43671
451.913	6907.03613
452.126	6864.55119
452.339	6911.30517
452.552	6902.77083
452.765	6879.37855
452.978	6909.17018
453.191	6902.77083
453.404	6889.99741
453.617	6875.13752
453.83	6904.90301
454.043	6917.71579
454.255	6917.71579
454.468	6904.90301
454.681	6982.29034
454.894	6995.3083
455.107	6952.04913
455.319	6934.8522
455.532	6930.56244
455.745	6982.29034
455.958	6960.67039
456.17	6990.96513
456.383	6986.62581
456.596	6986.62581
456.808	6973.63089
457.021	6980.12404
457.233	7017.082
457.446	7001.83027
457.659	7043.33841
457.871	7004.00619
458.084	7001.83027
458.296	7004.00619
458.509	7017.082
458.721	7071.9416
458.934	7030.19269
459.146	7067.53031
459.358	7107.37417
459.571	7065.32614
459.783	7012.71953
459.996	7078.56592
460.208	7076.35682
460.42	7071.9416
460.632	7085.19912
460.845	7091.84122
461.057	7069.73546
461.269	7025.81858
461.481	7109.59714
461.694	7087.41217
461.906	7089.6262
462.118	7100.71123
462.33	7087.41217
462.542	7091.84122
462.754	7134.11565
462.967	7100.71123
463.179	7065.32614
463.391	7183.5177
463.603	7147.5405
463.815	7129.64874
464.027	7158.75555
464.239	7154.2665
464.451	7161.00159
464.663	7120.72693
464.875	7152.02349
465.086	7158.75555
465.298	7127.41679
465.51	7174.49908
465.722	7179.00636
465.934	7169.99586
466.146	7197.07618
466.358	7192.5526
466.569	7165.4967
466.781	7208.403
466.993	7172.24697
467.205	7181.26152
467.416	7174.49908
467.628	7242.53757
467.84	7194.81388
468.051	7256.25649
468.263	7201.60383
468.475	7260.83778
468.686	7188.03311
468.898	7235.69209
469.109	7219.75544
469.321	7274.60663
469.532	7242.53757
469.744	7283.80676
469.955	7270.01284
470.167	7244.82146
470.378	7263.12998
470.59	7299.94735
470.801	7286.10941
471.013	7309.1937
471.224	7233.41233
471.435	7265.42322
471.647	7318.45693
471.858	7283.80676
472.069	7306.88053
472.281	7404.95054
472.492	7327.73709
472.703	7346.3484
472.914	7341.68919
473.126	7360.35168
473.337	7330.05978
473.548	7365.028
473.759	7306.88053
473.97	7376.73758
474.181	7367.36776
474.392	7362.6893
474.604	7353.34523
474.815	7325.41546
475.026	7372.05052
475.237	7341.68919
475.448	7360.35168
475.659	7390.82461
475.87	7367.36776
476.081	7332.38354
476.292	7395.52892
476.502	7414.38952
476.713	7358.01512
476.924	7383.77624
477.135	7306.88053
477.346	7388.47407
477.557	7358.01512
477.768	7409.66786
477.978	7367.36776
478.189	7376.73758
478.4	7383.77624
478.611	7388.47407
478.821	7395.52892
479.032	7360.35168
479.243	7407.30866
479.453	7351.01188
479.664	7397.8827
479.875	7367.36776
480.085	7464.23085
480.296	7393.17623
480.507	7445.18667
480.717	7383.77624
480.928	7428.58064
481.138	7393.17623
481.349	7337.03423
481.559	7348.67961
481.77	7402.59351
481.98	7419.11553
482.19	7393.17623
482.401	7478.56032
482.611	7341.68919
482.822	7447.56334
483.032	7438.06323
483.242	7452.31998
483.453	7397.8827
483.663	7483.34567
483.873	7369.70861
484.084	7397.8827
484.294	7454.69995
484.504	7440.43661
484.714	7442.81109
484.924	7449.94111
485.135	7409.66786
485.345	7412.02815
485.555	7452.31998
485.765	7492.92968
485.975	7412.02815
486.185	7512.15116
486.395	7430.94965
486.605	7445.18667
486.815	7412.02815
487.025	7500.12937
487.235	7471.39061
487.445	7449.94111
487.655	7464.23085
487.865	7480.95244
488.075	7504.93474
488.285	7459.4632
488.495	7464.23085
488.705	7514.55887
488.915	7402.59351
489.124	7440.43661
489.334	7497.72836
489.544	7447.56334
489.754	7471.39061
489.964	7495.32846
490.173	7430.94965
490.383	7457.08103
490.593	7457.08103
490.802	7531.44424
491.012	7497.72836
491.222	7514.55887
491.431	7521.78873
491.641	7492.92968
491.851	7473.77941
492.06	7459.4632
492.27	7461.84647
492.479	7461.84647
492.689	7435.69094
492.898	7495.32846
493.108	7461.84647
493.317	7445.18667
493.527	7454.69995
493.736	7464.23085
493.945	7466.61633
494.155	7445.18667
494.364	7469.00292
494.574	7445.18667
494.783	7438.06323
494.992	7490.53201
495.202	7485.74
495.411	7442.81109
495.62	7447.56334
495.829	7480.95244
496.039	7428.58064
496.248	7485.74
496.457	7507.33909
496.666	7502.53149
496.875	7459.4632
497.084	7452.31998
497.294	7461.84647
497.503	7461.84647
497.712	7531.44424
497.921	7433.31975
498.13	7507.33909
498.339	7536.27874
498.548	7464.23085
498.757	7454.69995
498.966	7461.84647
499.175	7490.53201
499.384	7490.53201
499.593	7466.61633
499.802	7504.93474
500.011	7533.86093
500.219	7536.27874
500.428	7509.74457
500.637	7488.13545
500.846	7531.44424
501.055	7529.02868
501.263	7538.69769
501.472	7550.80931
501.681	7541.11775
501.89	7521.78873
502.098	7471.39061
502.307	7500.12937
502.516	7531.44424
502.724	7497.72836
502.933	7594.646
503.142	7521.78873
503.35	7577.55456
503.559	7550.80931
503.767	7533.86093
503.976	7519.37765
504.184	7541.11775
504.393	7526.61424
504.601	7526.61424
504.81	7536.27874
505.018	7631.45981
505.227	7553.23503
505.435	7575.11749
505.644	7495.32846
505.852	7589.75702
506.06	7504.93474
506.269	7500.12937
506.477	7548.38473
506.685	7589.75702
506.894	7543.53895
507.102	7575.11749
507.31	7538.69769
507.518	7562.94922
507.727	7560.51897
507.935	7575.11749
508.143	7558.08986
508.351	7594.646
508.559	7558.08986
508.768	7584.87261
508.976	7550.80931
509.184	7601.98806
509.392	7536.27874
509.6	7531.44424
509.808	7562.94922
510.016	7589.75702
510.224	7541.11775
510.432	7558.08986
510.64	7572.68156
510.848	7577.55456
511.056	7560.51897
511.264	7558.08986
511.472	7516.9677
511.679	7558.08986
511.887	7577.55456
512.095	7555.66188
512.303	7587.31424
512.511	7550.80931
512.719	7584.87261
512.926	7543.53895
513.134	7526.61424
513.342	7577.55456
513.55	7589.75702
513.757	7570.24677
513.965	7560.51897
514.173	7514.55887
514.38	7553.23503
514.588	7565.3806
514.796	7614.2478
515.003	7548.38473
515.211	7560.51897
515.418	7548.38473
515.626	7606.88851
515.833	7572.68156
516.041	7545.96127
516.248	7529.02868
516.456	7567.81312
516.663	7533.86093
516.871	7555.66188
517.078	7531.44424
517.285	7599.53956
517.493	7541.11775
517.7	7609.34045
517.908	7584.87261
518.115	7541.11775
518.322	7611.79355
518.529	7567.81312
518.737	7587.31424
518.944	7587.31424
519.151	7594.646
519.358	7565.3806
519.566	7572.68156
519.773	7555.66188
519.98	7611.79355
520.187	7521.78873
520.394	7553.23503
520.601	7495.32846
520.809	7614.2478
521.016	7604.43771
521.223	7519.37765
521.43	7536.27874
521.637	7550.80931
521.844	7572.68156
522.051	7587.31424
522.258	7500.12937
522.465	7592.20094
522.672	7504.93474
522.878	7548.38473
523.085	7565.3806
523.292	7545.96127
523.499	7531.44424
523.706	7570.24677
523.913	7497.72836
524.12	7587.31424
524.326	7567.81312
524.533	7597.09221
524.74	7587.31424
524.947	7604.43771
525.153	7572.68156
525.36	7565.3806
525.567	7579.99277
525.773	7545.96127
525.98	7587.31424
526.187	7587.31424
526.393	7555.66188
526.6	7543.53895
526.806	7572.68156
527.013	7565.3806
527.22	7575.11749
527.426	7565.3806
527.633	7597.09221
527.839	7606.88851
528.046	7616.70319
528.252	7601.98806
528.458	7565.3806
528.665	7597.09221
528.871	7545.96127
529.078	7575.11749
529.284	7570.24677
529.49	7621.61745
529.697	7616.70319
529.903	7584.87261
530.109	7594.646
530.316	7604.43771
530.522	7589.75702
530.728	7621.61745
530.934	7572.68156
531.14	7548.38473
531.347	7584.87261
531.553	7589.75702
531.759	7604.43771
531.965	7638.85372
532.171	7584.87261
532.377	7606.88851
532.583	7545.96127
532.789	7624.0763
532.996	7572.68156
533.202	7619.15974
533.408	7587.31424
533.614	7626.53632
533.82	7597.09221
534.025	7609.34045
534.231	7553.23503
534.437	7587.31424
534.643	7621.61745
534.849	7572.68156
535.055	7562.94922
535.261	7565.3806
535.467	7604.43771
535.672	7621.61745
535.878	7550.80931
536.084	7504.93474
536.29	7526.61424
536.496	7589.75702
536.701	7558.08986
536.907	7611.79355
537.113	7550.80931
537.318	7619.15974
537.524	7572.68156
537.73	7536.27874
537.935	7548.38473
538.141	7619.15974
538.346	7584.87261
538.552	7555.66188
538.758	7555.66188
538.963	7597.09221
539.169	7575.11749
539.374	7545.96127
539.58	7536.27874
539.785	7555.66188
539.991	7587.31424
540.196	7594.646
540.401	7562.94922
540.607	7575.11749
540.812	7584.87261
541.017	7558.08986
541.223	7519.37765
541.428	7572.68156
541.633	7533.86093
541.839	7589.75702
542.044	7594.646
542.249	7565.3806
542.454	7558.08986
542.66	7526.61424
542.865	7538.69769
543.07	7548.38473
543.275	7541.11775
543.48	7560.51897
543.686	7558.08986
543.891	7553.23503
544.096	7538.69769
544.301	7524.20092
544.506	7550.80931
544.711	7579.99277
544.916	7524.20092
545.121	7548.38473
545.326	7509.74457
545.531	7555.66188
545.736	7512.15116
545.941	7500.12937
546.146	7524.20092
546.351	7543.53895
546.555	7507.33909
546.76	7565.3806
546.965	7512.15116
547.17	7507.33909
547.375	7471.39061
547.58	7531.44424
547.784	7543.53895
547.989	7509.74457
548.194	7521.78873
548.399	7536.27874
548.603	7504.93474
548.808	7514.55887
549.013	7497.72836
549.217	7504.93474
549.422	7497.72836
549.627	7529.02868
549.831	7521.78873
550.036	7504.93474
550.24	7524.20092
550.445	7519.37765
550.649	7459.4632
550.854	7492.92968
551.058	7485.74
551.263	7504.93474
551.467	7548.38473
551.672	7428.58064
551.876	7485.74
552.081	7529.02868
552.285	7560.51897
552.489	7531.44424
552.694	7461.84647
552.898	7543.53895
553.102	7483.34567
553.307	7507.33909
553.511	7447.56334
553.715	7512.15116
553.919	7478.56032
554.124	7497.72836
554.328	7480.95244
554.532	7500.12937
554.736	7452.31998
554.94	7459.4632
555.145	7480.95244
555.349	7497.72836
555.553	7492.92968
555.757	7521.78873
555.961	7526.61424
556.165	7521.78873
556.369	7461.84647
556.573	7519.37765
556.777	7485.74
556.981	7469.00292
557.185	7529.02868
557.389	7500.12937
557.593	7497.72836
557.797	7526.61424
558.001	7433.31975
558.205	7512.15116
558.409	7485.74
558.612	7509.74457
558.816	7464.23085
559.02	7575.11749
559.224	7538.69769
559.428	7502.53149
559.631	7521.78873
559.835	7485.74
560.039	7445.18667
560.243	7509.74457
560.446	7512.15116
560.65	7502.53149
560.854	7478.56032
561.057	7490.53201
561.261	7497.72836
561.464	7548.38473
561.668	7473.77941
561.872	7536.27874
562.075	7509.74457
562.279	7509.74457
562.482	7476.16931
562.686	7490.53201
562.889	7469.00292
563.093	7476.16931
563.296	7502.53149
563.499	7521.78873
563.703	7464.23085
563.906	7419.11553
564.11	7454.69995
564.313	7438.06323
564.516	7449.94111
564.72	7412.02815
564.923	7421.48018
565.126	7435.69094
565.33	7423.84591
565.533	7393.17623
565.736	7421.48018
565.939	7473.77941
566.142	7388.47407
566.346	7388.47407
566.549	7358.01512
566.752	7435.69094
566.955	7323.09489
567.158	7369.70861
567.361	7351.01188
567.564	7369.70861
567.767	7442.81109
567.971	7390.82461
568.174	7374.39351
568.377	7374.39351
568.58	7346.3484
568.783	7358.01512
568.985	7379.08272
569.188	7393.17623
569.391	7379.08272
569.594	7348.67961
569.797	7341.68919
570	7358.01512
570.203	7327.73709
570.406	7339.36118
570.609	7272.30921
570.811	7304.56842
571.014	7374.39351
571.217	7351.01188
571.42	7295.3305
571.622	7318.45693
571.825	7288.41311
572.028	7360.35168
572.231	7337.03423
572.433	7299.94735
572.636	7293.02365
572.838	7376.73758
573.041	7304.56842
573.244	7376.73758
573.446	7379.08272
573.649	7270.01284
573.851	7290.71786
574.054	7348.67961
574.256	7351.01188
574.459	7341.68919
574.661	7325.41546
574.864	7348.67961
575.066	7351.01188
575.269	7330.05978
575.471	7376.73758
575.673	7355.67964
575.876	7367.36776
576.078	7376.73758
576.281	7348.67961
576.483	7318.45693
576.685	7323.09489
576.887	7404.95054
577.09	7344.01826
577.292	7365.028
577.494	7327.73709
577.696	7344.01826
577.899	7351.01188
578.101	7393.17623
578.303	7390.82461
578.505	7388.47407
578.707	7325.41546
578.909	7341.68919
579.111	7421.48018
579.314	7383.77624
579.516	7374.39351
579.718	7423.84591
579.92	7369.70861
580.122	7362.6893
580.324	7362.6893
580.526	7404.95054
580.728	7348.67961
580.93	7404.95054
581.131	7393.17623
581.333	7449.94111
581.535	7376.73758
581.737	7412.02815
581.939	7404.95054
582.141	7409.66786
582.343	7430.94965
582.544	7376.73758
582.746	7344.01826
582.948	7388.47407
583.15	7412.02815
583.352	7426.21273
583.553	7390.82461
583.755	7393.17623
583.957	7367.36776
584.158	7393.17623
584.36	7346.3484
584.562	7388.47407
584.763	7365.028
584.965	7369.70861
585.166	7400.23756
585.368	7442.81109
585.569	7388.47407
585.771	7419.11553
585.972	7407.30866
586.174	7426.21273
586.375	7416.75198
586.577	7402.59351
586.778	7381.42894
586.98	7442.81109
587.181	7438.06323
587.383	7404.95054
587.584	7353.34523
587.785	7412.02815
587.987	7376.73758
588.188	7372.05052
588.389	7400.23756
588.591	7390.82461
588.792	7353.34523
588.993	7351.01188
589.194	7369.70861
589.396	7402.59351
589.597	7402.59351
589.798	7412.02815
589.999	7372.05052
590.2	7393.17623
590.401	7341.68919
590.603	7323.09489
590.804	7365.028
591.005	7409.66786
591.206	7367.36776
591.407	7376.73758
591.608	7365.028
591.809	7367.36776
592.01	7374.39351
592.211	7360.35168
592.412	7348.67961
592.613	7421.48018
592.814	7327.73709
593.015	7374.39351
593.216	7369.70861
593.416	7327.73709
593.617	7327.73709
593.818	7374.39351
594.019	7348.67961
594.22	7325.41546
594.421	7369.70861
594.621	7358.01512
594.822	7316.13953
595.023	7376.73758
595.224	7358.01512
595.424	7369.70861
595.625	7334.70835
595.826	7372.05052
596.026	7348.67961
596.227	7330.05978
596.428	7334.70835
596.628	7374.39351
596.829	7379.08272
597.029	7447.56334
597.23	7293.02365
597.43	7383.77624
597.631	7355.67964
597.831	7355.67964
598.032	7325.41546
598.232	7320.77538
598.433	7362.6893
598.633	7365.028
598.834	7299.94735
599.034	7358.01512
599.234	7332.38354
599.435	7409.66786
599.635	7358.01512
599.835	7302.25736
600.036	7327.73709
600.236	7351.01188
600.436	7327.73709
600.637	7323.09489
600.837	7281.50516
601.037	7320.77538
601.237	7320.77538
601.438	7318.45693
601.638	7311.50792
601.838	7318.45693
602.038	7323.09489
602.238	7334.70835
602.438	7341.68919
602.638	7309.1937
602.838	7281.50516
603.038	7339.36118
603.239	7288.41311
603.439	7320.77538
603.639	7348.67961
603.839	7293.02365
604.039	7311.50792
604.238	7272.30921
604.438	7306.88053
604.638	7309.1937
604.838	7286.10941
605.038	7295.3305
605.238	7323.09489
605.438	7323.09489
605.638	7316.13953
605.838	7302.25736
606.037	7299.94735
606.237	7281.50516
606.437	7295.3305
606.637	7290.71786
606.836	7279.2046
607.036	7304.56842
607.236	7258.54661
607.436	7240.25471
607.635	7235.69209
607.835	7270.01284
608.034	7281.50516
608.234	7272.30921
608.434	7270.01284
608.633	7309.1937
608.833	7249.39236
609.032	7290.71786
609.232	7244.82146
609.431	7302.25736
609.631	7297.6384
609.83	7270.01284
610.03	7253.96741
610.229	7249.39236
610.429	7276.90509
610.628	7263.12998
610.828	7318.45693
611.027	7267.71751
611.226	7237.97288
611.426	7297.6384
611.625	7224.30362
611.824	7283.80676
612.024	7276.90509
612.223	7263.12998
612.422	7295.3305
612.621	7265.42322
612.821	7249.39236
613.02	7247.10639
613.219	7242.53757
613.418	7251.67937
613.617	7256.25649
613.817	7249.39236
614.016	7279.2046
614.215	7290.71786
614.414	7228.85591
614.613	7283.80676
614.812	7253.96741
615.011	7265.42322
615.21	7233.41233
615.409	7299.94735
615.608	7233.41233
615.807	7256.25649
616.006	7237.97288
616.205	7313.8232
616.404	7290.71786
616.603	7224.30362
616.802	7274.60663
617.001	7228.85591
617.2	7274.60663
617.398	7260.83778
617.597	7244.82146
617.796	7267.71751
617.995	7267.71751
618.194	7217.4829
618.392	7251.67937
618.591	7237.97288
618.79	7260.83778
618.988	7270.01284
619.187	7235.69209
619.386	7281.50516
619.585	7260.83778
619.783	7253.96741
619.982	7249.39236
620.18	7222.02902
620.379	7249.39236
620.578	7219.75544
620.776	7253.96741
620.975	7244.82146
621.173	7208.403
621.372	7190.29235
621.57	7244.82146
621.769	7256.25649
621.967	7206.13558
622.166	7206.13558
622.364	7247.10639
622.562	7219.75544
622.761	7172.24697
622.959	7165.4967
623.157	7240.25471
623.356	7176.75221
623.554	7192.5526
623.752	7222.02902
623.951	7181.26152
624.149	7167.74578
624.347	7181.26152
624.546	7181.26152
624.744	7190.29235
624.942	7172.24697
625.14	7210.67143
625.338	7181.26152
625.536	7172.24697
625.735	7179.00636
625.933	7190.29235
626.131	7138.58658
626.329	7176.75221
626.527	7145.30051
626.725	7138.58658
626.923	7183.5177
627.121	7131.8817
627.319	7169.99586
627.517	7158.75555
627.715	7167.74578
627.913	7154.2665
628.111	7179.00636
628.309	7131.8817
628.507	7165.4967
628.705	7138.58658
628.903	7129.64874
629.1	7145.30051
629.298	7122.95588
629.496	7127.41679
629.694	7136.35062
629.892	7118.49897
630.089	7098.49224
630.287	7138.58658
630.485	7105.15219
630.683	7134.11565
630.88	7140.82355
631.078	7109.59714
631.276	7107.37417
631.473	7156.51052
631.671	7127.41679
631.869	7109.59714
632.066	7147.5405
632.264	7109.59714
632.461	7143.06153
632.659	7076.35682
632.856	7089.6262
633.054	7096.27424
633.251	7102.93122
633.449	7105.15219
633.646	7114.04606
633.844	7054.32003
634.041	7082.98706
634.239	7089.6262
634.436	7071.9416
634.634	7125.18583
634.831	7078.56592
635.028	7111.8211
635.226	7080.776
635.423	7100.71123
635.62	7094.05724
635.817	7116.27202
636.015	7098.49224
636.212	7087.41217
636.409	7094.05724
636.606	7076.35682
636.804	7111.8211
637.001	7096.27424
637.198	7140.82355
637.395	7087.41217
637.592	7118.49897
637.789	7089.6262
637.987	7100.71123
638.184	7056.51929
638.381	7129.64874
638.578	7087.41217
638.775	7118.49897
638.972	7096.27424
639.169	7096.27424
639.366	7102.93122
639.563	7120.72693
639.76	7100.71123
639.957	7082.98706
640.154	7105.15219
640.351	7096.27424
640.547	7089.6262
640.744	7136.35062
640.941	7085.19912
641.138	7089.6262
641.335	7109.59714
641.532	7089.6262
641.728	7114.04606
641.925	7105.15219
642.122	7138.58658
642.319	7111.8211
642.515	7096.27424
642.712	7122.95588
642.909	7169.99586
643.105	7096.27424
643.302	7100.71123
643.499	7136.35062
643.695	7109.59714
643.892	7136.35062
644.089	7116.27202
644.285	7156.51052
644.482	7105.15219
644.678	7118.49897
644.875	7129.64874
645.071	7154.2665
645.268	7129.64874
645.464	7109.59714
645.661	7076.35682
645.857	7129.64874
646.054	7089.6262
646.25	7167.74578
646.446	7074.14872
646.643	7114.04606
646.839	7078.56592
647.035	7116.27202
647.232	7114.04606
647.428	7091.84122
647.624	7116.27202
647.821	7131.8817
648.017	7078.56592
648.213	7080.776
648.409	7087.41217
648.606	7085.19912
648.802	7038.95261
648.998	7118.49897
649.194	7091.84122
649.39	7107.37417
649.586	7069.73546
649.783	7105.15219
649.979	7107.37417
650.175	7080.776
650.371	7080.776
650.567	7100.71123
650.763	7076.35682
650.959	7041.14502
651.155	7091.84122
651.351	7114.04606
651.547	7078.56592
651.743	7085.19912
651.939	7087.41217
652.135	7102.93122
652.33	7054.32003
652.526	7091.84122
652.722	7076.35682
652.918	7067.53031
653.114	7096.27424
653.31	7049.92445
653.506	7038.95261
653.701	7047.72812
653.897	7038.95261
654.093	7080.776
654.289	7074.14872
654.484	7060.92075
654.68	7074.14872
654.876	7008.36093
655.071	7052.12175
655.267	7094.05724
655.463	7078.56592
655.658	7038.95261
655.854	7054.32003
656.049	7032.38121
656.245	7063.12295
656.441	7080.776
656.636	7056.51929
656.832	7089.6262
657.027	7054.32003
657.223	7098.49224
657.418	7032.38121
657.613	7071.9416
657.809	7045.53278
658.004	7085.19912
658.2	7006.18308
658.395	7054.32003
658.591	7052.12175
658.786	7025.81858
658.981	7021.44835
659.177	7078.56592
659.372	7056.51929
659.567	7060.92075
659.762	7028.00515
659.958	7041.14502
660.153	7006.18308
660.348	7047.72812
660.543	7030.19269
660.739	7036.76117
660.934	7038.95261
661.129	7030.19269
661.324	6986.62581
661.519	7047.72812
661.714	7012.71953
661.909	7028.00515
662.104	7052.12175
662.299	7043.33841
662.495	6969.3069
662.69	7019.26469
662.885	6973.63089
663.08	7010.53974
663.275	7008.36093
663.469	6956.35786
663.664	6964.98674
663.859	6945.59317
664.054	6988.79499
664.249	6975.79431
664.444	6956.35786
664.639	6971.46842
664.834	6954.20302
665.029	6956.35786
665.223	6960.67039
665.418	6990.96513
665.613	6930.56244
665.808	6947.74421
666.003	6902.77083
666.197	6964.98674
666.392	6943.44308
666.587	6962.82809
666.781	6945.59317
666.976	6947.74421
667.171	6930.56244
667.365	6909.17018
667.56	6902.77083
667.755	6932.70685
667.949	6921.99424
668.144	6971.46842
668.338	6919.85454
668.533	6917.71579
668.727	6892.12397
668.922	6909.17018
669.116	6904.90301
669.311	6904.90301
669.505	6875.13752
669.7	6932.70685
669.894	6892.12397
670.089	6896.37991
670.283	6911.30517
670.477	6917.71579
670.672	6839.23831
670.866	6909.17018
671.06	6894.25148
671.255	6883.6233
671.449	6898.50928
671.643	6911.30517
671.837	6864.55119
672.032	6902.77083
672.226	6877.25757
672.42	6915.57798
672.614	6870.9002
672.809	6883.6233
673.003	6892.12397
673.197	6928.41897
673.391	6864.55119
673.585	6902.77083
673.779	6885.74707
673.973	6941.29394
674.167	6864.55119
674.361	6889.99741
674.555	6911.30517
674.749	6885.74707
674.943	6870.9002
675.137	6919.85454
675.331	6883.6233
675.525	6909.17018
675.719	6887.87177
675.913	6879.37855
676.107	6894.25148
676.301	6849.76921
676.495	6868.78294
676.689	6915.57798
676.883	6889.99741
677.076	6885.74707
677.27	6851.87815
677.464	6892.12397
677.658	6847.66119
677.852	6900.63959
678.045	6862.43671
678.239	6898.50928
678.433	6887.87177
678.626	6862.43671
678.82	6858.21051
679.014	6898.50928
679.207	6881.50046
679.401	6889.99741
679.595	6862.43671
679.788	6860.32315
679.982	6849.76921
680.175	6849.76921
680.369	6894.25148
680.563	6853.98801
680.756	6849.76921
680.95	6873.0184
681.143	6849.76921
681.336	6909.17018
681.53	6841.34265
681.723	6919.85454
681.917	6892.12397
682.11	6877.25757
682.304	6832.93081
682.497	6873.0184
682.69	6832.93081
682.884	6896.37991
683.077	6866.6666
683.27	6849.76921
683.464	6856.0988
683.657	6851.87815
683.85	6873.0184
684.043	6883.6233
684.237	6862.43671
684.43	6870.9002
684.623	6877.25757
684.816	6862.43671
685.009	6875.13752
685.202	6885.74707
685.396	6887.87177
685.589	6839.23831
685.782	6820.34055
685.975	6883.6233
686.168	6875.13752
686.361	6900.63959
686.554	6879.37855
686.747	6866.6666
686.94	6894.25148
687.133	6875.13752
687.326	6896.37991
687.519	6877.25757
687.712	6870.9002
687.905	6849.76921
688.098	6856.0988
688.291	6883.6233
688.484	6849.76921
688.676	6877.25757
688.869	6896.37991
689.062	6900.63959
689.255	6853.98801
689.448	6875.13752
689.64	6883.6233
689.833	6873.0184
690.026	6849.76921
690.219	6898.50928
690.411	6864.55119
690.604	6858.21051
690.797	6879.37855
690.989	6868.78294
691.182	6879.37855
691.375	6879.37855
691.567	6870.9002
691.76	6847.66119
691.952	6860.32315
692.145	6864.55119
692.338	6824.53364
692.53	6839.23831
692.723	6858.21051
692.915	6849.76921
693.108	6847.66119
693.3	6837.13489
693.493	6824.53364
693.685	6826.63156
693.877	6801.51679
694.07	6820.34055
694.262	6793.17432
694.455	6791.09097
694.647	6768.23377
694.839	6795.25858
695.032	6766.16125
695.224	6791.09097
695.416	6757.88016
695.609	6789.00853
695.801	6774.45673
695.993	6749.6134
696.185	6757.88016
696.378	6768.23377
696.57	6774.45673
696.762	6735.181
696.954	6741.36096
697.146	6766.16125
697.338	6759.94908
697.53	6722.8451
697.723	6739.30008
697.915	6718.74024
698.107	6724.89886
698.299	6729.00905
698.491	6718.74024
698.683	6712.58959
698.875	6729.00905
699.067	6737.2401
699.259	6708.49357
699.451	6710.54114
699.643	6726.95351
699.835	6726.95351
700.027	6663.66964
700.219	6677.88579
700.41	6708.49357
700.602	6694.18532
700.794	6706.44689
700.986	6692.14481
701.178	6700.31214
701.37	6669.75704
701.561	6692.14481
701.753	6702.35618
701.945	6749.6134
702.137	6700.31214
702.328	6726.95351
702.52	6712.58959
702.712	6702.35618
702.903	6688.06642
703.095	6661.64225
703.287	6696.22672
703.478	6688.06642
703.67	6692.14481
703.862	6704.4011
704.053	6720.79223
704.245	6677.88579
704.436	6718.74024
704.628	6679.92016
704.819	6700.31214
705.011	6675.85229
705.202	6690.10518
705.394	6692.14481
705.585	6700.31214
705.777	6677.88579
705.968	6688.06642
706.159	6712.58959
706.351	6671.78792
706.542	6692.14481
706.734	6690.10518
706.925	6694.18532
707.116	6712.58959
707.308	6673.81967
707.499	6698.26899
707.69	6673.81967
707.881	6704.4011
708.073	6690.10518
708.264	6700.31214
708.455	6675.85229
708.646	6716.68914
708.837	6688.06642
709.029	6700.31214
709.22	6700.31214
709.411	6694.18532
709.602	6694.18532
709.793	6714.63892
709.984	6688.06642
710.175	6692.14481
710.366	6667.72703
710.557	6681.95541
710.748	6696.22672
710.939	6712.58959
711.13	6704.4011
711.321	6692.14481
711.512	6690.10518
711.703	6735.181
711.894	6688.06642
712.085	6702.35618
712.276	6692.14481
712.467	6686.02854
712.658	6733.1228
712.849	6720.79223
713.039	6702.35618
713.23	6755.81212
713.421	6724.89886
713.612	6702.35618
713.803	6749.6134
713.993	6731.06548
714.184	6718.74024
714.375	6726.95351
714.566	6692.14481
714.756	6733.1228
714.947	6710.54114
715.138	6743.42273
715.328	6741.36096
715.519	6714.63892
715.709	6722.8451
715.9	6739.30008
716.091	6735.181
716.281	6766.16125
716.472	6749.6134
716.662	6735.181
716.853	6704.4011
717.043	6737.2401
717.234	6735.181
717.424	6751.67875
717.615	6737.2401
717.805	6731.06548
717.996	6735.181
718.186	6741.36096
718.376	6747.54895
718.567	6747.54895
718.757	6745.4854
718.947	6774.45673
719.138	6708.49357
719.328	6751.67875
719.518	6737.2401
719.709	6772.38151
719.899	6735.181
720.089	6733.1228
720.279	6764.08963
720.47	6755.81212
720.66	6731.06548
720.85	6729.00905
721.04	6768.23377
721.23	6768.23377
721.421	6739.30008
721.611	6702.35618
721.801	6718.74024
721.991	6757.88016
722.181	6735.181
722.371	6762.01891
722.561	6726.95351
722.751	6716.68914
722.941	6743.42273
723.131	6743.42273
723.321	6762.01891
723.511	6751.67875
723.701	6737.2401
723.891	6718.74024
724.081	6737.2401
724.271	6735.181
724.461	6745.4854
724.651	6782.76662
724.84	6741.36096
725.03	6747.54895
725.22	6778.60987
725.41	6786.92699
725.6	6757.88016
725.789	6776.53285
725.979	6759.94908
726.169	6757.88016
726.359	6733.1228
726.548	6741.36096
726.738	6745.4854
726.928	6757.88016
727.118	6757.88016
727.307	6745.4854
727.497	6720.79223
727.686	6757.88016
727.876	6751.67875
728.066	6747.54895
728.255	6749.6134
728.445	6772.38151
728.634	6726.95351
728.824	6737.2401
729.013	6729.00905
729.203	6722.8451
729.392	6741.36096
729.582	6710.54114
729.771	6714.63892
729.961	6724.89886
730.15	6751.67875
730.34	6733.1228
730.529	6731.06548
730.718	6731.06548
730.908	6751.67875
731.097	6757.88016
731.286	6724.89886
731.476	6710.54114
731.665	6735.181
731.854	6745.4854
732.044	6714.63892
732.233	6722.8451
732.422	6729.00905
732.611	6729.00905
732.8	6749.6134
732.99	6739.30008
733.179	6712.58959
733.368	6712.58959
733.557	6745.4854
733.746	6743.42273
733.935	6735.181
734.124	6702.35618
734.313	6720.79223
734.503	6741.36096
734.692	6692.14481
734.881	6716.68914
735.07	6686.02854
735.259	6718.74024
735.448	6708.49357
735.637	6712.58959
735.826	6671.78792
736.015	6679.92016
736.203	6669.75704
736.392	6698.26899
736.581	6665.6979
736.77	6675.85229
736.959	6688.06642
737.148	6669.75704
737.337	6655.56531
737.525	6655.56531
737.714	6647.47488
737.903	6645.45444
738.092	6637.38134
738.281	6655.56531
738.469	6631.33559
738.658	6649.49618
738.847	6619.26737
739.035	6631.33559
739.224	6627.30941
739.413	6651.51836
739.601	6609.23416
739.79	6619.26737
739.979	6611.23909
740.167	6639.39832
740.356	6611.23909
740.544	6611.23909
740.733	6613.24487
740.921	6617.25901
741.11	6605.22688
741.299	6597.22258
741.487	6615.25151
741.675	6571.30274
741.864	6603.22452
742.052	6629.32207
742.241	6591.22831
742.429	6575.28106
742.618	6575.28106
742.806	6561.37174
742.994	6573.29148
743.183	6591.22831
743.371	6565.3416
743.559	6589.23193
743.748	6601.22302
743.936	6591.22831
744.124	6605.22688
744.312	6607.23009
744.501	6607.23009
744.689	6611.23909
744.877	6605.22688
745.065	6593.22555
745.254	6609.23416
745.442	6617.25901
745.63	6603.22452
745.818	6611.23909
746.006	6621.27659
746.194	6615.25151
746.382	6613.24487
746.57	6627.30941
746.758	6625.29761
746.946	6603.22452
747.134	6619.26737
747.323	6629.32207
747.51	6655.56531
747.698	6651.51836
747.886	6613.24487
748.074	6651.51836
748.262	6619.26737
748.45	6633.34998
748.638	6655.56531
748.826	6645.45444
749.014	6641.41616
749.202	6641.41616
749.39	6659.61573
749.577	6649.49618
749.765	6667.72703
749.953	6661.64225
750.141	6679.92016
750.329	6659.61573
750.516	6667.72703
750.704	6667.72703
750.892	6641.41616
751.079	6663.66964
751.267	6688.06642
751.455	6657.59009
751.643	6655.56531
751.83	6639.39832
752.018	6671.78792
752.205	6665.6979
752.393	6665.6979
752.581	6683.99154
752.768	6667.72703
752.956	6683.99154
753.143	6665.6979
753.331	6686.02854
753.518	6679.92016
753.706	6679.92016
753.893	6663.66964
754.081	6683.99154
754.268	6661.64225
754.456	6665.6979
754.643	6635.36523
754.83	6657.59009
755.018	6669.75704
755.205	6690.10518
755.392	6643.43487
755.58	6679.92016
755.767	6665.6979
755.954	6675.85229
756.142	6651.51836
756.329	6663.66964
756.516	6679.92016
756.703	6665.6979
756.891	6667.72703
757.078	6677.88579
757.265	6675.85229
757.452	6669.75704
757.639	6643.43487
757.827	6669.75704
758.014	6643.43487
758.201	6667.72703
758.388	6675.85229
758.575	6653.5414
758.762	6631.33559
758.949	6675.85229
759.136	6655.56531
759.323	6653.5414
759.51	6657.59009
759.697	6669.75704
759.884	6677.88579
760.071	6651.51836
760.258	6663.66964
760.445	6686.02854
760.632	6661.64225
760.819	6679.92016
761.006	6657.59009
761.193	6657.59009
761.38	6659.61573
761.566	6647.47488
761.753	6641.41616
761.94	6651.51836
762.127	6621.27659
762.314	6641.41616
762.5	6639.39832
762.687	6631.33559
762.874	6649.49618
763.061	6659.61573
763.247	6637.38134
763.434	6647.47488
763.621	6659.61573
763.807	6623.28667
763.994	6635.36523
764.181	6635.36523
764.367	6645.45444
764.554	6635.36523
764.74	6645.45444
764.927	6621.27659
765.114	6607.23009
765.3	6655.56531
765.487	6609.23416
765.673	6621.27659
765.86	6643.43487
766.046	6641.41616
766.233	6661.64225
766.419	6613.24487
766.605	6643.43487
766.792	6667.72703
766.978	6633.34998
767.165	6615.25151
767.351	6623.28667
767.537	6657.59009
767.724	6637.38134
767.91	6649.49618
768.096	6643.43487
768.283	6629.32207
768.469	6637.38134
768.655	6639.39832
768.841	6629.32207
769.028	6607.23009
769.214	6623.28667
769.4	6637.38134
769.586	6623.28667
769.773	6635.36523
769.959	6637.38134
770.145	6647.47488
770.331	6601.22302
770.517	6627.30941
770.703	6621.27659
770.889	6643.43487
771.075	6637.38134
771.261	6633.34998
771.447	6613.24487
771.633	6649.49618
771.819	6635.36523
772.005	6615.25151
772.191	6627.30941
772.377	6625.29761
772.563	6629.32207
772.749	6615.25151
772.935	6635.36523
773.121	6639.39832
773.307	6619.26737
773.493	6623.28667
773.679	6615.25151
773.865	6619.26737
774.05	6613.24487
774.236	6617.25901
774.422	6617.25901
774.608	6615.25151
774.794	6623.28667
774.979	6623.28667
775.165	6597.22258
775.351	6631.33559
775.537	6611.23909
775.722	6601.22302
775.908	6591.22831
776.094	6635.36523
776.279	6623.28667
776.465	6621.27659
776.65	6633.34998
776.836	6629.32207
777.022	6631.33559
777.207	6645.45444
777.393	6593.22555
777.578	6603.22452
777.764	6617.25901
777.949	6635.36523
778.135	6595.22363
778.32	6563.35625
778.506	6621.27659
778.691	6611.23909
778.877	6599.22237
779.062	6601.22302
779.247	6585.24172
779.433	6647.47488
779.618	6629.32207
779.804	6613.24487
779.989	6605.22688
780.174	6627.30941
780.36	6627.30941
780.545	6659.61573
780.73	6615.25151
780.915	6607.23009
781.101	6605.22688
781.286	6603.22452
781.471	6591.22831
781.656	6625.29761
781.842	6609.23416
782.027	6603.22452
782.212	6623.28667
782.397	6603.22452
782.582	6615.25151
782.767	6581.25491
782.952	6589.23193
783.138	6605.22688
783.323	6635.36523
783.508	6603.22452
783.693	6639.39832
783.878	6621.27659
784.063	6627.30941
784.248	6623.28667
784.433	6599.22237
784.618	6623.28667
784.803	6599.22237
784.988	6605.22688
785.173	6595.22363
785.357	6645.45444
785.542	6611.23909
785.727	6619.26737
785.912	6587.2364
786.097	6591.22831
786.282	6621.27659
786.467	6563.35625
786.651	6617.25901
786.836	6601.22302
787.021	6603.22452
787.206	6609.23416
787.391	6627.30941
787.575	6631.33559
787.76	6599.22237
787.945	6613.24487
788.129	6609.23416
788.314	6603.22452
788.499	6599.22237
788.683	6593.22555
788.868	6611.23909
789.053	6609.23416
789.237	6615.25151
789.422	6617.25901
789.606	6601.22302
789.791	6589.23193
789.975	6581.25491
790.16	6625.29761
790.344	6595.22363
790.529	6587.2364
790.713	6599.22237
790.898	6615.25151
791.082	6593.22555
791.267	6587.2364
791.451	6601.22302
791.636	6563.35625
791.82	6603.22452
792.004	6589.23193
792.189	6597.22258
792.373	6583.24789
792.557	6561.37174
792.742	6599.22237
792.926	6619.26737
793.11	6595.22363
793.295	6581.25491
793.479	6561.37174
793.663	6559.38807
793.847	6577.2715
794.031	6575.28106
794.216	6553.44214
794.4	6577.2715
794.584	6587.2364
794.768	6599.22237
794.952	6567.3278
795.136	6585.24172
795.32	6573.29148
795.505	6563.35625
795.689	6565.3416
795.873	6583.24789
796.057	6587.2364
796.241	6571.30274
796.425	6575.28106
796.609	6563.35625
796.793	6589.23193
796.977	6559.38807
797.161	6579.26278
797.345	6575.28106
797.529	6581.25491
797.713	6583.24789
797.896	6553.44214
798.08	6559.38807
798.264	6567.3278
798.448	6555.42327
798.632	6533.67701
798.816	6565.3416
798.999	6549.48239
799.183	6565.3416
799.367	6587.2364
799.551	6541.57299
799.735	6569.31485
799.918	6579.26278
800.102	6573.29148
800.286	6575.28106
800.469	6543.54908
800.653	6561.37174
800.837	6565.3416
801.02	6571.30274
801.204	6539.59773
801.388	6559.38807
801.571	6565.3416
801.755	6581.25491
801.938	6553.44214
802.122	6567.3278
802.306	6563.35625
802.489	6573.29148
802.673	6541.57299
802.856	6575.28106
803.04	6557.40525
803.223	6557.40525
803.406	6577.2715
803.59	6577.2715
803.773	6575.28106
803.957	6595.22363
804.14	6561.37174
804.323	6567.3278
804.507	6557.40525
804.69	6551.46184
804.874	6579.26278
805.057	6517.92519
805.24	6591.22831
805.423	6577.2715
805.607	6567.3278
805.79	6563.35625
805.973	6551.46184
806.156	6571.30274
806.34	6573.29148
806.523	6571.30274
806.706	6607.23009
806.889	6553.44214
807.072	6559.38807
807.256	6553.44214
807.439	6587.2364
807.622	6573.29148
807.805	6551.46184
807.988	6583.24789
808.171	6553.44214
808.354	6553.44214
808.537	6587.2364
808.72	6581.25491
808.903	6575.28106
809.086	6567.3278
809.269	6589.23193
809.452	6581.25491
809.635	6573.29148
809.818	6571.30274
810.001	6589.23193
810.184	6541.57299
810.367	6555.42327
810.55	6571.30274
810.732	6563.35625
810.915	6571.30274
811.098	6549.48239
811.281	6551.46184
811.464	6559.38807
811.647	6569.31485
811.829	6563.35625
812.012	6557.40525
812.195	6559.38807
812.378	6567.3278
812.56	6573.29148
812.743	6567.3278
812.926	6555.42327
813.108	6575.28106
813.291	6559.38807
813.474	6559.38807
813.656	6547.50378
813.839	6555.42327
814.022	6549.48239
814.204	6571.30274
814.387	6537.62332
814.569	6557.40525
814.752	6579.26278
814.934	6571.30274
815.117	6557.40525
815.299	6543.54908
815.482	6563.35625
815.664	6565.3416
815.847	6555.42327
816.029	6579.26278
816.212	6535.64975
816.394	6555.42327
816.576	6565.3416
816.759	6571.30274
816.941	6549.48239
817.123	6549.48239
817.306	6553.44214
817.488	6551.46184
817.67	6573.29148
817.853	6559.38807
818.035	6571.30274
818.217	6577.2715
818.4	6563.35625
818.582	6575.28106
818.764	6577.2715
818.946	6537.62332
819.128	6549.48239
819.311	6551.46184
819.493	6565.3416
819.675	6539.59773
819.857	6545.52601
820.039	6571.30274
820.221	6539.59773
820.403	6547.50378
820.585	6547.50378
820.767	6563.35625
820.949	6583.24789
821.132	6559.38807
821.314	6575.28106
821.496	6559.38807
821.678	6579.26278
821.859	6553.44214
822.041	6555.42327
822.223	6579.26278
822.405	6557.40525
822.587	6569.31485
822.769	6605.22688
822.951	6555.42327
823.133	6555.42327
823.315	6567.3278
823.497	6555.42327
823.678	6545.52601
823.86	6573.29148
824.042	6565.3416
824.224	6549.48239
824.406	6545.52601
824.587	6541.57299
824.769	6587.2364
824.951	6557.40525
825.132	6557.40525
825.314	6573.29148
825.496	6559.38807
825.678	6553.44214
825.859	6567.3278
826.041	6549.48239
826.222	6549.48239
826.404	6579.26278
826.586	6563.35625
826.767	6581.25491
826.949	6563.35625
827.13	6559.38807
827.312	6587.2364
827.493	6579.26278
827.675	6577.2715
827.856	6579.26278
828.038	6547.50378
828.219	6543.54908
828.401	6543.54908
828.582	6559.38807
828.764	6577.2715
828.945	6565.3416
829.126	6571.30274
829.308	6555.42327
829.489	6551.46184
829.671	6531.70511
829.852	6567.3278
830.033	6587.2364
830.214	6581.25491
830.396	6563.35625
830.577	6557.40525
830.758	6543.54908
830.94	6575.28106
831.121	6555.42327
831.302	6559.38807
831.483	6555.42327
831.664	6539.59773
831.846	6521.85814
832.027	6529.73404
832.208	6555.42327
832.389	6565.3416
832.57	6549.48239
832.751	6543.54908
832.932	6567.3278
833.113	6559.38807
833.294	6553.44214
833.476	6569.31485
833.657	6539.59773
833.838	6567.3278
834.019	6575.28106
834.2	6543.54908
834.381	6571.30274
834.561	6551.46184
834.742	6559.38807
834.923	6547.50378
835.104	6545.52601
835.285	6525.79442
835.466	6561.37174
835.647	6547.50378
835.828	6529.73404
836.009	6567.3278
836.189	6555.42327
836.37	6537.62332
836.551	6559.38807
836.732	6539.59773
836.913	6589.23193
837.093	6545.52601
837.274	6515.95997
837.455	6539.59773
837.636	6559.38807
837.816	6529.73404
837.997	6557.40525
838.178	6541.57299
838.358	6547.50378
838.539	6553.44214
838.72	6567.3278
838.9	6539.59773
839.081	6553.44214
839.261	6555.42327
839.442	6555.42327
839.622	6533.67701
839.803	6531.70511
839.984	6555.42327
840.164	6559.38807
840.345	6531.70511
840.525	6545.52601
840.705	6523.82586
840.886	6553.44214
841.066	6555.42327
841.247	6545.52601
841.427	6557.40525
841.608	6563.35625
841.788	6549.48239
841.968	6563.35625
842.149	6539.59773
842.329	6573.29148
842.509	6563.35625
842.69	6551.46184
842.87	6541.57299
843.05	6563.35625
843.231	6553.44214
843.411	6557.40525
843.591	6553.44214
843.771	6553.44214
843.951	6569.31485
844.132	6555.42327
844.312	6555.42327
844.492	6539.59773
844.672	6541.57299
844.852	6569.31485
845.032	6555.42327
845.213	6549.48239
845.393	6543.54908
845.573	6557.40525
845.753	6547.50378
845.933	6567.3278
846.113	6543.54908
846.293	6563.35625
846.473	6541.57299
846.653	6563.35625
846.833	6547.50378
847.013	6537.62332
847.193	6539.59773
847.373	6559.38807
847.553	6515.95997
847.733	6539.59773
847.913	6557.40525
848.092	6525.79442
848.272	6543.54908
848.452	6539.59773
848.632	6539.59773
848.812	6551.46184
848.992	6551.46184
849.171	6553.44214
849.351	6551.46184
849.531	6531.70511
849.711	6541.57299
849.89	6573.29148
850.07	6585.24172
850.25	6539.59773
850.43	6535.64975
850.609	6551.46184
850.789	6541.57299
850.969	6575.28106
851.148	6561.37174
851.328	6529.73404
851.507	6533.67701
851.687	6553.44214
851.867	6533.67701
852.046	6537.62332
852.226	6551.46184
852.405	6543.54908
852.585	6527.76381
852.764	6551.46184
852.944	6571.30274
853.123	6549.48239
853.303	6557.40525
853.482	6527.76381
853.662	6539.59773
853.841	6545.52601
854.021	6531.70511
854.2	6555.42327
854.379	6579.26278
854.559	6539.59773
854.738	6527.76381
854.917	6559.38807
855.097	6559.38807
855.276	6531.70511
855.455	6557.40525
855.635	6567.3278
855.814	6549.48239
855.993	6545.52601
856.172	6535.64975
856.352	6523.82586
856.531	6535.64975
856.71	6549.48239
856.889	6561.37174
857.068	6553.44214
857.248	6545.52601
857.427	6555.42327
857.606	6551.46184
857.785	6527.76381
857.964	6523.82586
858.143	6571.30274
858.322	6539.59773
858.501	6531.70511
858.68	6541.57299
858.859	6515.95997
859.038	6555.42327
859.217	6535.64975
859.396	6527.76381
859.575	6529.73404
859.754	6539.59773
859.933	6545.52601
860.112	6541.57299
860.291	6543.54908
860.47	6529.73404
860.649	6559.38807
860.828	6547.50378
861.007	6545.52601
861.186	6571.30274
861.364	6541.57299
861.543	6523.82586
861.722	6567.3278
861.901	6557.40525
862.08	6525.79442
862.258	6571.30274
862.437	6557.40525
862.616	6551.46184
862.795	6539.59773
862.973	6539.59773
863.152	6545.52601
863.331	6543.54908
863.509	6547.50378
863.688	6525.79442
863.867	6543.54908
864.045	6531.70511
864.224	6569.31485
864.402	6543.54908
864.581	6559.38807
864.76	6545.52601
864.938	6553.44214
865.117	6527.76381
865.295	6531.70511
865.474	6541.57299
865.652	6504.18609
865.831	6521.85814
866.009	6508.10739
866.188	6551.46184
866.366	6539.59773
866.544	6517.92519
866.723	6547.50378
866.901	6549.48239
867.08	6543.54908
867.258	6527.76381
867.436	6510.06929
867.615	6571.30274
867.793	6549.48239
867.971	6531.70511
868.15	6563.35625
868.328	6547.50378
868.506	6549.48239
868.684	6541.57299
868.863	6531.70511
869.041	6533.67701
869.219	6545.52601
869.397	6527.76381
869.576	6527.76381
869.754	6519.89125
869.932	6541.57299
870.11	6555.42327
870.288	6533.67701
870.466	6541.57299
870.644	6563.35625
870.822	6545.52601
871.001	6523.82586
871.179	6519.89125
871.357	6537.62332
871.535	6531.70511
871.713	6533.67701
871.891	6539.59773
872.069	6539.59773
872.247	6531.70511
872.425	6535.64975
872.603	6531.70511
872.781	6523.82586
872.958	6531.70511
873.136	6513.99558
873.314	6523.82586
873.492	6551.46184
873.67	6565.3416
873.848	6513.99558
874.026	6533.67701
874.204	6537.62332
874.381	6517.92519
874.559	6537.62332
874.737	6521.85814
874.915	6529.73404
875.092	6559.38807
875.27	6523.82586
875.448	6531.70511
875.626	6519.89125
875.803	6531.70511
875.981	6527.76381
876.159	6523.82586
876.336	6521.85814
876.514	6539.59773
876.692	6557.40525
876.869	6545.52601
877.047	6527.76381
877.224	6539.59773
877.402	6535.64975
877.58	6523.82586
877.757	6533.67701
877.935	6541.57299
878.112	6543.54908
878.29	6529.73404
878.467	6549.48239
878.645	6525.79442
878.822	6531.70511
879	6541.57299
879.177	6529.73404
879.354	6545.52601
879.532	6539.59773
879.709	6543.54908
879.887	6513.99558
880.064	6523.82586
880.241	6521.85814
880.419	6549.48239
880.596	6512.03202
880.773	6535.64975
880.951	6498.31035
881.128	6545.52601
881.305	6513.99558
881.482	6553.44214
881.66	6512.03202
881.837	6551.46184
882.014	6523.82586
882.191	6535.64975
882.368	6525.79442
882.546	6549.48239
882.723	6547.50378
882.9	6537.62332
883.077	6523.82586
883.254	6539.59773
883.431	6531.70511
883.608	6535.64975
883.785	6521.85814
883.962	6533.67701
884.139	6527.76381
884.317	6504.18609
884.494	6517.92519
884.671	6519.89125
884.848	6531.70511
885.025	6539.59773
885.201	6549.48239
885.378	6523.82586
885.555	6535.64975
885.732	6545.52601
885.909	6527.76381
886.086	6525.79442
886.263	6521.85814
886.44	6535.64975
886.617	6527.76381
886.794	6545.52601
886.97	6549.48239
887.147	6557.40525
887.324	6527.76381
887.501	6533.67701
887.678	6531.70511
887.854	6521.85814
888.031	6523.82586
888.208	6539.59773
888.384	6513.99558
888.561	6506.14633
888.738	6517.92519
888.915	6513.99558
889.091	6517.92519
889.268	6551.46184
889.444	6533.67701
889.621	6537.62332
889.798	6512.03202
889.974	6535.64975
890.151	6519.89125
890.327	6525.79442
890.504	6519.89125
890.681	6551.46184
890.857	6555.42327
891.034	6521.85814
891.21	6535.64975
891.387	6537.62332
891.563	6551.46184
891.739	6541.57299
891.916	6555.42327
892.092	6521.85814
892.269	6527.76381
892.445	6525.79442
892.622	6521.85814
892.798	6527.76381
892.974	6529.73404
893.151	6494.39734
893.327	6531.70511
893.503	6539.59773
893.68	6533.67701
893.856	6535.64975
894.032	6515.95997
894.208	6541.57299
894.385	6541.57299
894.561	6525.79442
894.737	6517.92519
894.913	6512.03202
895.089	6512.03202
895.266	6531.70511
895.442	6545.52601
895.618	6513.99558
895.794	6523.82586
895.97	6500.2681
896.146	6541.57299
896.322	6533.67701
896.499	6539.59773
896.675	6513.99558
896.851	6519.89125
897.027	6519.89125
897.203	6547.50378
897.379	6508.10739
897.555	6537.62332
897.731	6519.89125
897.907	6529.73404
898.083	6529.73404
898.259	6535.64975
898.435	6537.62332
898.611	6525.79442
898.786	6525.79442
898.962	6539.59773
899.138	6533.67701
899.314	6531.70511
899.49	6551.46184
899.666	6523.82586
899.842	6515.95997
900.017	6547.50378
900.193	6488.53401
900.369	6537.62332
900.545	6512.03202
900.72	6545.52601
900.896	6543.54908
901.072	6512.03202
901.248	6539.59773
901.423	6541.57299
901.599	6513.99558
901.775	6508.10739
901.95	6533.67701
902.126	6523.82586
902.302	6527.76381
902.477	6515.95997
902.653	6517.92519
902.829	6533.67701
903.004	6531.70511
903.18	6513.99558
903.355	6517.92519
903.531	6529.73404
903.706	6551.46184
903.882	6539.59773
904.057	6517.92519
904.233	6539.59773
904.408	6523.82586
904.584	6527.76381
904.759	6533.67701
904.935	6512.03202
905.11	6523.82586
905.285	6533.67701
905.461	6541.57299
905.636	6537.62332
905.812	6527.76381
905.987	6517.92519
906.162	6506.14633
906.338	6510.06929
906.513	6492.44207
906.688	6523.82586
906.863	6533.67701
907.039	6545.52601
907.214	6517.92519
907.389	6508.10739
907.564	6517.92519
907.74	6513.99558
907.915	6527.76381
908.09	6517.92519
908.265	6519.89125
908.44	6508.10739
908.615	6510.06929
908.791	6531.70511
908.966	6547.50378
909.141	6502.22668
909.316	6531.70511
909.491	6563.35625
909.666	6515.95997
909.841	6549.48239
910.016	6535.64975
910.191	6543.54908
910.366	6502.22668
910.541	6517.92519
910.716	6506.14633
910.891	6523.82586
911.066	6543.54908
911.241	6504.18609
911.416	6519.89125
911.591	6539.59773
911.766	6515.95997
911.941	6521.85814
912.116	6547.50378
912.29	6531.70511
912.465	6547.50378
912.64	6519.89125
912.815	6525.79442
912.99	6525.79442
913.165	6537.62332
913.339	6510.06929
913.514	6539.59773
913.689	6510.06929
913.864	6541.57299
914.038	6506.14633
914.213	6523.82586
914.388	6541.57299
914.562	6525.79442
914.737	6533.67701
914.912	6506.14633
915.086	6541.57299
915.261	6510.06929
915.436	6510.06929
915.61	6513.99558
915.785	6517.92519
915.959	6504.18609
916.134	6515.95997
916.309	6502.22668
916.483	6535.64975
916.658	6515.95997
916.832	6527.76381
917.007	6510.06929
917.181	6512.03202
917.356	6510.06929
917.53	6517.92519
917.704	6515.95997
917.879	6510.06929
918.053	6553.44214
918.228	6523.82586
918.402	6512.03202
918.576	6527.76381
918.751	6515.95997
918.925	6512.03202
919.1	6519.89125
919.274	6476.82963
919.448	6535.64975
919.622	6517.92519
919.797	6523.82586
919.971	6527.76381
920.145	6519.89125
920.32	6500.2681
920.494	6553.44214
920.668	6506.14633
920.842	6525.79442
921.016	6543.54908
921.191	6517.92519
921.365	6513.99558
921.539	6502.22668
921.713	6529.73404
921.887	6521.85814
922.061	6523.82586
922.235	6543.54908
922.409	6517.92519
922.583	6519.89125
922.758	6508.10739
922.932	6529.73404
923.106	6531.70511
923.28	6510.06929
923.454	6527.76381
923.628	6523.82586
923.802	6513.99558
923.976	6525.79442
924.149	6527.76381
924.323	6506.14633
924.497	6517.92519
924.671	6502.22668
924.845	6539.59773
925.019	6525.79442
925.193	6515.95997
925.367	6531.70511
925.541	6504.18609
925.714	6508.10739
925.888	6531.70511
926.062	6512.03202
926.236	6523.82586
926.41	6531.70511
926.583	6557.40525
926.757	6523.82586
926.931	6515.95997
927.105	6512.03202
927.278	6502.22668
927.452	6480.72779
927.626	6551.46184
927.799	6510.06929
927.973	6521.85814
928.147	6525.79442
928.32	6527.76381
928.494	6525.79442
928.668	6521.85814
928.841	6519.89125
929.015	6496.35343
929.188	6555.42327
929.362	6545.52601
929.535	6521.85814
929.709	6523.82586
929.882	6521.85814
930.056	6523.82586
930.229	6525.79442
930.403	6541.57299
930.576	6510.06929
930.75	6527.76381
930.923	6539.59773
931.097	6527.76381
931.27	6512.03202
931.443	6527.76381
931.617	6508.10739
931.79	6527.76381
931.963	6535.64975
932.137	6527.76381
932.31	6515.95997
932.483	6521.85814
932.657	6517.92519
932.83	6527.76381
933.003	6515.95997
933.177	6539.59773
933.35	6500.2681
933.523	6513.99558
933.696	6533.67701
933.869	6535.64975
934.043	6531.70511
934.216	6508.10739
934.389	6519.89125
934.562	6547.50378
934.735	6543.54908
934.908	6527.76381
935.082	6517.92519
935.255	6517.92519
935.428	6527.76381
935.601	6529.73404
935.774	6517.92519
935.947	6504.18609
936.12	6496.35343
936.293	6521.85814
936.466	6527.76381
936.639	6531.70511
936.812	6525.79442
936.985	6533.67701
937.158	6539.59773
937.331	6521.85814
937.504	6535.64975
937.677	6506.14633
937.85	6513.99558
938.022	6535.64975
938.195	6533.67701
938.368	6531.70511
938.541	6502.22668
938.714	6531.70511
938.887	6502.22668
939.059	6535.64975
939.232	6547.50378
939.405	6527.76381
939.578	6527.76381
939.751	6517.92519
939.923	6523.82586
940.096	6523.82586
940.269	6519.89125
940.441	6521.85814
940.614	6543.54908
940.787	6510.06929
940.96	6523.82586
941.132	6512.03202
941.305	6535.64975
941.477	6531.70511
941.65	6527.76381
941.823	6515.95997
941.995	6533.67701
942.168	6543.54908
942.34	6510.06929
942.513	6521.85814
942.685	6500.2681
942.858	6513.99558
943.03	6513.99558
943.203	6523.82586
943.375	6506.14633
943.548	6510.06929
943.72	6515.95997
943.893	6521.85814
944.065	6521.85814
944.238	6498.31035
944.41	6508.10739
944.582	6521.85814
944.755	6496.35343
944.927	6519.89125
945.1	6506.14633
945.272	6508.10739
945.444	6517.92519
945.617	6502.22668
945.789	6521.85814
945.961	6533.67701
946.133	6510.06929
946.306	6506.14633
946.478	6517.92519
946.65	6527.76381
946.822	6519.89125
946.995	6510.06929
947.167	6533.67701
947.339	6519.89125
947.511	6541.57299
947.683	6512.03202
947.855	6527.76381
948.027	6502.22668
948.2	6508.10739
948.372	6533.67701
948.544	6543.54908
948.716	6512.03202
948.888	6502.22668
949.06	6537.62332
949.232	6508.10739
949.404	6525.79442
949.576	6519.89125
949.748	6535.64975
949.92	6521.85814
950.092	6527.76381
950.264	6533.67701
950.436	6502.22668
950.608	6533.67701
950.78	6527.76381
950.952	6512.03202
951.124	6531.70511
951.295	6539.59773
951.467	6510.06929
951.639	6515.95997
951.811	6508.10739
951.983	6521.85814
952.155	6531.70511
952.326	6513.99558
952.498	6531.70511
952.67	6517.92519
952.842	6506.14633
953.014	6513.99558
953.185	6535.64975
953.357	6557.40525
953.529	6537.62332
953.7	6515.95997
953.872	6531.70511
954.044	6531.70511
954.215	6523.82586
954.387	6498.31035
954.559	6517.92519
954.73	6523.82586
954.902	6527.76381
955.074	6504.18609
955.245	6519.89125
955.417	6541.57299
955.588	6508.10739
955.76	6513.99558
955.931	6523.82586
956.103	6512.03202
956.274	6547.50378
956.446	6547.50378
956.617	6527.76381
956.789	6506.14633
956.96	6492.44207
957.132	6515.95997
957.303	6529.73404
957.474	6506.14633
957.646	6525.79442
957.817	6539.59773
957.989	6555.42327
958.16	6508.10739
958.331	6543.54908
958.503	6521.85814
958.674	6517.92519
958.845	6525.79442
959.017	6521.85814
959.188	6523.82586
959.359	6523.82586
959.53	6498.31035
959.702	6561.37174
959.873	6529.73404
960.044	6512.03202
960.215	6527.76381
960.387	6529.73404
960.558	6512.03202
960.729	6535.64975
960.9	6525.79442
961.071	6523.82586
961.242	6529.73404
961.413	6521.85814
961.585	6480.72779
961.756	6529.73404
961.927	6502.22668
962.098	6531.70511
962.269	6515.95997
962.44	6525.79442
962.611	6498.31035
962.782	6527.76381
962.953	6506.14633
963.124	6510.06929
963.295	6513.99558
963.466	6517.92519
963.637	6535.64975
963.808	6555.42327
963.979	6523.82586
964.15	6512.03202
964.32	6513.99558
964.491	6519.89125
964.662	6512.03202
964.833	6508.10739
965.004	6531.70511
965.175	6537.62332
965.346	6525.79442
965.516	6533.67701
965.687	6490.48763
965.858	6521.85814
966.029	6527.76381
966.199	6523.82586
966.37	6506.14633
966.541	6527.76381
966.712	6531.70511
966.882	6521.85814
967.053	6519.89125
967.224	6498.31035
967.394	6523.82586
967.565	6533.67701
967.736	6541.57299
967.906	6521.85814
968.077	6513.99558
968.248	6531.70511
968.418	6513.99558
968.589	6517.92519
968.759	6512.03202
968.93	6531.70511
969.1	6513.99558
969.271	6500.2681
969.441	6525.79442
969.612	6531.70511
969.782	6527.76381
969.953	6531.70511
970.123	6523.82586
970.294	6515.95997
970.464	6525.79442
970.635	6525.79442
970.805	6513.99558
970.975	6502.22668
971.146	6519.89125
971.316	6512.03202
971.487	6515.95997
971.657	6513.99558
971.827	6545.52601
971.998	6537.62332
972.168	6510.06929
972.338	6517.92519
972.508	6500.2681
972.679	6517.92519
972.849	6531.70511
973.019	6508.10739
973.189	6498.31035
973.36	6513.99558
973.53	6519.89125
973.7	6502.22668
973.87	6502.22668
974.04	6515.95997
974.211	6521.85814
974.381	6512.03202
974.551	6504.18609
974.721	6512.03202
974.891	6537.62332
975.061	6510.06929
975.231	6517.92519
975.401	6529.73404
975.571	6523.82586
975.741	6492.44207
975.911	6521.85814
976.081	6531.70511
976.251	6531.70511
976.421	6543.54908
976.591	6515.95997
976.761	6510.06929
976.931	6521.85814
977.101	6506.14633
977.271	6510.06929
977.441	6519.89125
977.611	6521.85814
977.781	6525.79442
977.951	6515.95997
978.121	6506.14633
978.291	6521.85814
978.46	6523.82586
978.63	6519.89125
978.8	6510.06929
978.97	6502.22668
979.14	6510.06929
979.309	6513.99558
979.479	6523.82586
979.649	6521.85814
979.819	6531.70511
979.988	6549.48239
980.158	6521.85814
980.328	6529.73404
980.497	6529.73404
980.667	6541.57299
980.837	6533.67701
981.006	6521.85814
981.176	6555.42327
981.346	6519.89125
981.515	6541.57299
981.685	6533.67701
981.854	6537.62332
982.024	6515.95997
982.194	6525.79442
982.363	6492.44207
982.533	6513.99558
982.702	6535.64975
982.872	6519.89125
983.041	6504.18609
983.211	6529.73404
983.38	6492.44207
983.55	6506.14633
983.719	6555.42327
983.889	6535.64975
984.058	6508.10739
984.227	6506.14633
984.397	6510.06929
984.566	6508.10739
984.735	6484.62925
984.905	6533.67701
985.074	6515.95997
985.244	6539.59773
985.413	6494.39734
985.582	6500.2681
985.751	6502.22668
985.921	6508.10739
986.09	6523.82586
986.259	6508.10739
986.428	6517.92519
986.598	6521.85814
986.767	6519.89125
986.936	6539.59773
987.105	6502.22668
987.275	6508.10739
987.444	6517.92519
987.613	6492.44207
987.782	6531.70511
987.951	6512.03202
988.12	6529.73404
988.289	6510.06929
988.458	6502.22668
988.628	6535.64975
988.797	6519.89125
988.966	6539.59773
989.135	6523.82586
989.304	6539.59773
989.473	6531.70511
989.642	6531.70511
989.811	6512.03202
989.98	6523.82586
990.149	6531.70511
990.318	6551.46184
990.487	6531.70511
990.656	6512.03202
990.824	6553.44214
990.993	6517.92519
991.162	6513.99558
991.331	6529.73404
991.5	6523.82586
991.669	6515.95997
991.838	6521.85814
992.007	6529.73404
992.175	6525.79442
992.344	6510.06929
992.513	6506.14633
992.682	6533.67701
992.85	6494.39734
993.019	6527.76381
993.188	6529.73404
993.357	6535.64975
993.525	6527.76381
993.694	6555.42327
993.863	6496.35343
994.032	6510.06929
994.2	6513.99558
994.369	6525.79442
994.537	6506.14633
994.706	6513.99558
994.875	6517.92519
995.043	6525.79442
995.212	6513.99558
995.381	6517.92519
995.549	6500.2681
995.718	6510.06929
995.886	6506.14633
996.055	6502.22668
996.223	6512.03202
996.392	6504.18609
996.56	6541.57299
996.729	6523.82586
996.897	6521.85814
997.066	6531.70511
997.234	6510.06929
997.403	6535.64975
997.571	6527.76381
997.739	6523.82586
997.908	6500.2681
998.076	6533.67701
998.244	6510.06929
998.413	6515.95997
998.581	6502.22668
998.75	6525.79442
998.918	6508.10739
999.086	6521.85814
999.254	6515.95997
999.423	6529.73404
999.591	6529.73404
999.759	6521.85814
999.928	6508.10739
1000.096	6521.85814
1000.264	6521.85814
1000.432	6515.95997
1000.6	6504.18609
1000.769	6517.92519
1000.937	6519.89125
1001.105	6523.82586
1001.273	6545.52601
1001.441	6547.50378
1001.609	6504.18609
1001.777	6541.57299
1001.945	6510.06929
1002.114	6539.59773
1002.282	6527.76381
1002.45	6523.82586
1002.618	6498.31035
1002.786	6512.03202
1002.954	6571.30274
1003.122	6521.85814
1003.29	6510.06929
1003.458	6539.59773
1003.626	6498.31035
1003.794	6523.82586
1003.962	6506.14633
1004.13	6523.82586
1004.298	6523.82586
1004.465	6535.64975
1004.633	6525.79442
1004.801	6543.54908
1004.969	6531.70511
1005.137	6504.18609
1005.305	6523.82586
1005.473	6523.82586
1005.64	6513.99558
1005.808	6500.2681
1005.976	6510.06929
1006.144	6512.03202
1006.312	6549.48239
1006.479	6523.82586
1006.647	6533.67701
1006.815	6513.99558
1006.983	6523.82586
1007.15	6547.50378
1007.318	6521.85814
1007.486	6535.64975
1007.653	6531.70511
1007.821	6541.57299
1007.989	6523.82586
1008.156	6535.64975
1008.324	6525.79442
1008.492	6551.46184
1008.659	6525.79442
1008.827	6543.54908
1008.994	6517.92519
1009.162	6523.82586
1009.329	6525.79442
1009.497	6515.95997
1009.665	6523.82586
1009.832	6517.92519
1010	6535.64975
1010.167	6488.53401
1010.335	6523.82586
1010.502	6519.89125
1010.669	6508.10739
1010.837	6539.59773
1011.004	6515.95997
1011.172	6553.44214
1011.339	6517.92519
1011.507	6529.73404
1011.674	6517.92519
1011.841	6545.52601
1012.009	6527.76381
1012.176	6506.14633
1012.343	6515.95997
1012.511	6535.64975
1012.678	6521.85814
1012.845	6533.67701
1013.013	6515.95997
1013.18	6523.82586
1013.347	6531.70511
1013.514	6527.76381
1013.682	6504.18609
1013.849	6515.95997
1014.016	6539.59773
1014.183	6535.64975
1014.35	6539.59773
1014.518	6492.44207
1014.685	6535.64975
1014.852	6504.18609
1015.019	6521.85814
1015.186	6527.76381
1015.353	6502.22668
1015.52	6529.73404
1015.687	6525.79442
1015.855	6523.82586
1016.022	6510.06929
1016.189	6525.79442
1016.356	6523.82586
1016.523	6508.10739
1016.69	6519.89125
1016.857	6533.67701
1017.024	6535.64975
1017.191	6527.76381
1017.358	6523.82586
1017.525	6535.64975
1017.692	6537.62332
1017.858	6535.64975
1018.025	6519.89125
1018.192	6502.22668
1018.359	6547.50378
1018.526	6513.99558
1018.693	6506.14633
1018.86	6531.70511
1019.027	6533.67701
1019.193	6512.03202
1019.36	6541.57299
1019.527	6510.06929
1019.694	6525.79442
1019.861	6529.73404
1020.027	6506.14633
1020.194	6535.64975
1020.361	6533.67701
1020.528	6541.57299
1020.694	6527.76381
1020.861	6513.99558
1021.028	6537.62332
1021.195	6527.76381
1021.361	6515.95997
1021.528	6513.99558
1021.694	6517.92519
1021.861	6523.82586
1022.028	6541.57299
1022.194	6553.44214
1022.361	6513.99558
1022.528	6523.82586
1022.694	6515.95997
1022.861	6519.89125
1023.027	6492.44207
1023.194	6517.92519
1023.36	6543.54908
1023.527	6513.99558
1023.693	6517.92519
1023.86	6517.92519
1024.026	6519.89125
1024.193	6523.82586
1024.359	6508.10739
1024.526	6545.52601
