Data from Sun spf1000_Subt2__1__10-07-46-261.txt Node

Date: Tue Sep 23 10:07:46 EDT 2025
User: brett
Spectrometer: USB4F03499
Trigger mode: 4
Integration Time (sec): 1.000000E-1
Scans to average: 1
Electric dark correction enabled: true
Nonlinearity correction enabled: true
Boxcar width: 0
XAxis mode: Wavelengths
Number of Pixels in Spectrum: 3648
>>>>>Begin Spectral Data<<<<<
0	2.49989
0.225	2.49989
0.449	2.49989
0.674	-75.90871
0.898	-50.53139
1.123	57.35434
1.347	-38.76843
1.572	-27.34534
1.796	55.29071
2.021	46.02378
2.245	55.01887
2.469	-34.22543
2.694	-41.01038
2.918	-8.98407
3.143	-91.74347
3.367	23.09287
3.591	4.77952
3.815	43.71327
4.04	813.96357
4.264	1174.12019
4.488	1047.40311
4.712	1001.42162
4.936	971.46654
5.161	1097.79885
5.385	1083.07975
5.609	1092.32542
5.833	1090.27466
6.057	1212.87372
6.281	1045.84747
6.505	1129.01777
6.729	1056.93852
6.953	1161.90139
7.177	1060.62807
7.401	1121.03442
7.625	1018.42788
7.849	1137.31914
8.073	1133.60757
8.297	1092.09602
8.521	978.05622
8.744	1100.51818
8.968	1229.85656
9.192	1156.73085
9.416	1142.02816
9.64	1051.69642
9.863	1082.69594
10.087	1146.73575
10.311	1009.04591
10.535	1002.19131
10.758	1025.43933
10.982	1143.48029
11.205	981.94774
11.429	1056.93741
11.653	1054.34908
11.876	1010.70921
12.1	1164.28186
12.323	1150.08352
12.547	1026.45747
12.77	1087.13289
12.994	1071.25754
13.217	1108.68415
13.441	1108.76214
13.664	1219.98562
13.887	1080.09522
14.111	1183.03809
14.334	967.14712
14.557	963.33141
14.781	1208.54428
15.004	1021.93409
15.227	1013.70586
15.451	1153.78296
15.674	1077.2264
15.897	1031.44003
16.12	1238.15433
16.343	1143.40051
16.567	1202.37195
16.79	1088.65925
17.013	1228.09064
17.236	1132.57409
17.459	1111.94684
17.682	1116.76345
17.905	1173.87223
18.128	1180.34682
18.351	1152.00846
18.574	1168.32147
18.797	1188.36606
19.02	1125.2255
19.243	1262.39301
19.466	1212.54068
19.689	1208.51156
19.911	1255.59269
20.134	1163.04885
20.357	1228.73544
20.58	1207.17004
20.803	1250.45324
21.025	1195.88019
21.248	1159.12652
21.471	1234.16843
21.694	1272.82669
21.916	1251.90746
22.139	1281.48491
22.362	1148.2258
22.584	1272.19739
22.807	1250.78762
23.029	1074.14684
23.252	1142.36745
23.475	1418.25217
23.697	1351.64594
23.92	1221.6
24.142	1191.21641
24.365	1157.59873
24.587	1259.95061
24.809	1330.24852
25.032	1224.60122
25.254	1242.81253
25.477	1329.6851
25.699	1167.56667
25.921	1237.89843
26.144	1207.63261
26.366	1183.14123
26.588	1325.12683
26.81	1334.82491
27.033	1296.00659
27.255	1215.37491
27.477	1288.77544
27.699	1363.97812
27.921	1298.47803
28.144	1330.24852
28.366	1223.81878
28.588	1359.10817
28.81	1397.91018
29.032	1376.33004
29.254	1392.55752
29.476	1342.99085
29.698	1465.00903
29.92	1502.0777
30.142	1595.37606
30.364	1493.91503
30.586	1674.82697
30.808	1641.84832
31.029	1613.95164
31.251	1693.91667
31.473	1562.44417
31.695	1688.21292
31.917	1628.84652
32.139	1847.75125
32.36	1795.81744
32.582	1817.73315
32.804	1906.41941
33.026	2032.661
33.247	1951.71582
33.469	2063.12855
33.691	2005.95289
33.912	2136.61816
34.134	2037.1193
34.355	2314.63062
34.577	2457.08324
34.798	2267.54869
35.02	2426.2438
35.242	2513.27362
35.463	2638.06635
35.684	2749.51655
35.906	3018.15919
36.127	3053.0433
36.349	3048.26916
36.57	3131.03847
36.792	3338.94754
37.013	3298.86818
37.234	3458.11273
37.456	3472.68606
37.677	3883.88994
37.898	3912.03773
38.119	4010.5403
38.341	4078.36649
38.562	4239.33574
38.783	4525.43315
39.004	4618.30533
39.225	4774.48535
39.447	4920.21648
39.668	5138.19978
39.889	5327.72305
40.11	5580.6848
40.331	5521.07053
40.552	5939.46446
40.773	6157.66226
40.994	6145.36141
41.215	6362.56449
41.436	6876.92868
41.657	6904.66156
41.878	7261.00937
42.099	7549.73479
42.32	7818.56387
42.54	8098.98972
42.761	8526.69461
42.982	8914.28646
43.203	8974.74015
43.424	9568.39189
43.645	9579.71616
43.865	9981.09761
44.086	10178.12688
44.307	10534.45383
44.527	10963.92065
44.748	11285.07555
44.969	11522.08224
45.189	11684.87002
45.41	11722.15877
45.631	12482.71272
45.851	12603.33118
46.072	12757.48227
46.292	13065.75456
46.513	13294.08159
46.733	13801.37431
46.954	14165.5214
47.174	14880.02625
47.395	14860.02698
47.615	15566.14118
47.836	15557.25325
48.056	16292.33339
48.276	15835.84701
48.497	15975.84017
48.717	16654.65704
48.937	16710.72848
49.158	17247.46296
49.378	16961.47606
49.598	17311.14704
49.818	17824.09278
50.038	17477.86493
50.259	18007.34856
50.479	18005.56581
50.699	18405.04544
50.919	18761.70156
51.139	18818.47127
51.359	18876.42663
51.579	19357.70288
51.799	18671.2391
52.02	18870.60015
52.24	18566.00603
52.46	18487.53342
52.68	18467.0688
52.899	17162.83784
53.119	17275.19525
53.339	17638.81026
53.559	16797.95491
53.779	16770.51551
53.999	16750.57797
54.219	16364.56092
54.439	16082.3633
54.658	15809.2572
54.878	15544.65653
55.098	15104.38537
55.318	14072.69214
55.538	14059.35943
55.757	13736.2519
55.977	12716.88011
56.197	12168.14055
56.416	11620.79761
56.636	11155.18005
56.855	11119.70194
57.075	10362.17004
57.295	9569.89639
57.514	9863.15112
57.734	9262.05653
57.953	8884.83119
58.173	8504.32203
58.392	7953.01391
58.612	7393.3226
58.831	6833.72703
59.051	6305.7712
59.27	5955.85129
59.489	5300.85179
59.709	4997.65654
59.928	4381.10731
60.147	4163.34874
60.367	3835.82496
60.586	3460.07359
60.805	3252.06248
61.024	3066.65351
61.244	3094.01174
61.463	2834.17552
61.682	2740.99531
61.901	2648.51844
62.12	2599.02664
62.34	2564.46981
62.559	2472.73287
62.778	2671.68225
62.997	2692.22829
63.216	2509.12834
63.435	2630.69655
63.654	2421.72933
63.873	2551.03324
64.092	2511.58742
64.311	2599.54995
64.53	2636.33814
64.749	2500.72969
64.968	2542.77627
65.187	2652.01841
65.405	2791.27877
65.624	2686.52523
65.843	2580.49523
66.062	2715.58288
66.281	2614.95299
66.499	2787.86578
66.718	2709.74611
66.937	2735.93219
67.156	2822.219
67.374	2833.54029
67.593	2897.99994
67.812	2782.43516
68.03	2966.09352
68.249	3069.44718
68.467	3033.23923
68.686	2909.48422
68.905	3018.90182
69.123	3137.89616
69.342	3123.80784
69.56	2992.58943
69.779	3053.36935
69.997	3174.89975
70.216	3106.17042
70.434	3093.65457
70.652	3180.17559
70.871	3124.51368
71.089	3247.18267
71.307	3176.44616
71.526	3124.86735
71.744	3194.88667
71.962	3297.86135
72.181	3177.78633
72.399	3306.11905
72.617	3319.50286
72.835	3341.40511
73.054	3300.52534
73.272	3328.21832
73.49	3423.99001
73.708	3476.81266
73.926	3530.76783
74.144	3448.27935
74.362	3403.40275
74.58	3471.46038
74.798	3593.17942
75.016	3488.87491
75.234	3445.23613
75.452	3394.7352
75.67	3505.33588
75.888	3511.42763
76.106	3761.10782
76.324	3728.62065
76.542	3596.73963
76.76	3625.60146
76.978	3798.43508
77.196	3738.3962
77.413	3761.37159
77.631	3780.32757
77.849	3665.98061
78.067	3704.44592
78.284	3764.96658
78.502	3660.92657
78.72	3910.09617
78.938	4088.40503
79.155	3961.45176
79.373	3976.12058
79.59	4015.75882
79.808	4150.03595
80.026	4048.10927
80.243	4102.95187
80.461	3844.85522
80.678	4208.04017
80.896	4144.79814
81.113	4184.98346
81.331	4067.08756
81.548	4212.92844
81.766	4150.62627
81.983	4489.22394
82.2	4431.80858
82.418	4478.63596
82.635	4422.13734
82.852	4382.14533
83.07	4431.04344
83.287	4515.0958
83.504	4472.42192
83.722	4434.44636
83.939	4426.24144
84.156	4390.28176
84.373	4736.33554
84.591	4529.38476
84.808	4594.34914
85.025	4722.96458
85.242	4597.68718
85.459	4413.35814
85.676	4749.95606
85.893	4518.34952
86.11	4710.94903
86.327	5037.25522
86.544	4861.04832
86.761	4820.64736
86.978	4945.88458
87.195	5019.40405
87.412	5296.39966
87.629	5547.32426
87.846	5592.39025
88.063	5513.81824
88.28	5661.33144
88.497	5772.8851
88.713	5956.1266
88.93	5834.11609
89.147	6167.03655
89.364	6227.79984
89.58	6375.55237
89.797	6392.88009
90.014	6555.00826
90.231	6701.67104
90.447	6726.70643
90.664	6531.33064
90.881	6676.79205
91.097	6901.27207
91.314	7206.40129
91.53	7507.20742
91.747	7770.95576
91.963	8166.83107
92.18	8651.85299
92.396	9277.18294
92.613	9158.5829
92.829	9896.24316
93.046	10675.88687
93.262	10988.97194
93.479	10967.72467
93.695	11002.79507
93.911	11865.14193
94.128	12258.21102
94.344	12334.34818
94.56	13087.03496
94.777	13211.74582
94.993	13449.42804
95.209	14658.49675
95.426	14772.41829
95.642	15362.98198
95.858	15744.66726
96.074	17768.36627
96.29	18461.7399
96.506	20455.96418
96.723	22141.68692
96.939	23382.89801
97.155	24128.71087
97.371	23414.58005
97.587	24324.13945
97.803	26224.7756
98.019	28590.43269
98.235	28857.46048
98.451	29524.2852
98.667	28761.52041
98.883	29068.26361
99.099	31468.7842
99.315	32633.28306
99.53	32825.32948
99.746	32648.70786
99.962	31053.76728
100.178	33933.59814
100.394	35996.3113
100.61	37085.36942
100.825	36528.11849
101.041	37734.75295
101.257	37616.02292
101.473	39630.62585
101.688	40194.41896
101.904	41418.37627
102.12	42769.00173
102.335	45113.92299
102.551	44786.21845
102.766	49246.21615
102.982	51205.07064
103.198	53258.83378
103.413	53801.74636
103.629	55883.21686
103.844	58027.77135
104.06	59337.05732
104.275	57330.05504
104.49	58640.63735
104.706	62374.49825
104.921	63317.71255
105.137	62065.89788
105.352	58800.25864
105.567	59435.76869
105.783	60946.96888
105.998	59664.34719
106.213	64435.90822
106.429	65583.637
106.644	65567.56695
106.859	65526.28479
107.074	65400.50401
107.29	65585.93345
107.505	65551.5058
107.72	65480.48416
107.935	65485.061
108.15	65517.11893
108.365	65597.41846
108.58	65494.21683
108.795	65487.34969
109.01	65494.21683
109.226	65618.10302
109.441	65379.97244
109.656	65597.41846
109.871	65430.18572
110.085	65498.79582
110.3	65528.57671
110.515	65606.60976
110.73	65443.89498
110.945	65556.09379
111.16	65498.79582
111.375	65503.37552
111.59	65551.5058
111.804	65521.7015
112.019	65523.99306
112.234	65560.68251
112.449	65498.79582
112.663	65537.74618
112.878	65560.68251
113.093	65540.039
113.308	65453.03802
113.522	65537.74618
113.737	65659.51696
113.951	65507.95594
114.166	65540.039
114.381	65528.57671
114.595	65551.5058
114.81	65521.7015
115.024	65535.45354
115.239	65507.95594
115.453	65569.86212
115.668	65553.79971
115.882	65501.08558
116.097	65553.79971
116.311	65636.50181
116.525	65528.57671
116.74	65643.40441
116.954	65491.92761
117.169	65540.039
117.383	65521.7015
117.597	65478.196
117.811	65537.74618
118.026	65453.03802
118.24	65489.63856
118.454	65542.332
118.668	65544.62518
118.883	65544.62518
119.097	65526.28479
119.311	65526.28479
119.525	65528.57671
119.739	65533.16108
119.953	65553.79971
120.167	65411.91654
120.381	65562.97714
120.595	65528.57671
120.809	65569.86212
121.023	65514.82791
121.237	65553.79971
121.451	65562.97714
121.665	65558.38806
121.879	65526.28479
122.093	65462.18389
122.307	65634.20132
122.521	65574.45302
122.735	65462.18389
122.949	65558.38806
123.163	65613.50516
123.376	65496.50623
123.59	65475.90802
123.804	65533.16108
124.018	65569.86212
124.231	65581.34073
124.445	65604.31166
124.659	65459.89716
124.872	65441.60966
125.086	65537.74618
125.3	65533.16108
125.513	65514.82791
125.727	65569.86212
125.94	65517.11893
126.154	65537.74618
126.368	65585.93345
126.581	65560.68251
126.795	65569.86212
127.008	65565.27195
127.222	65597.41846
127.435	65585.93345
127.648	65583.637
127.862	65512.53707
128.075	65576.74874
128.289	65494.21683
128.502	65588.23009
128.715	65523.99306
128.929	65638.80249
129.142	65565.27195
129.355	65535.45354
129.568	65473.62022
129.782	65512.53707
129.995	65457.6106
130.208	65558.38806
130.421	65579.04465
130.634	65572.15748
130.848	65494.21683
131.061	65457.6106
131.274	65498.79582
131.487	65597.41846
131.7	65569.86212
131.913	65496.50623
132.126	65542.332
132.339	65446.18048
132.552	65357.17609
132.765	65464.47081
132.978	65542.332
133.191	65565.27195
133.404	65501.08558
133.617	65560.68251
133.83	65512.53707
134.043	65590.52691
134.255	65615.804
134.468	65514.82791
134.681	65611.20651
134.894	65652.61047
135.107	65581.34073
135.319	65503.37552
135.532	65530.86881
135.745	65496.50623
135.958	65549.21208
136.17	65622.70161
136.383	65526.28479
136.596	65574.45302
136.808	65546.91854
137.021	65485.061
137.233	65576.74874
137.446	65519.41013
137.659	65558.38806
137.871	65409.63369
138.084	65549.21208
138.296	65510.24642
138.509	65544.62518
138.721	65579.04465
138.934	65526.28479
139.146	65512.53707
139.358	65572.15748
139.571	65450.752
139.783	65455.32423
139.996	65530.86881
140.208	65475.90802
140.42	65482.77249
140.632	65510.24642
140.845	65562.97714
141.057	65622.70161
141.269	65569.86212
141.481	65544.62518
141.694	65590.52691
141.906	65523.99306
142.118	65641.10336
142.33	65517.11893
142.542	65597.41846
142.754	65505.66564
142.967	65629.60088
143.179	65583.637
143.391	65471.3326
143.603	65562.97714
143.815	65459.89716
144.027	65540.039
144.239	65432.47015
144.451	65530.86881
144.663	65542.332
144.875	65466.75789
145.086	65434.75477
145.298	65487.34969
145.51	65565.27195
145.722	65469.04516
145.934	65558.38806
146.146	65562.97714
146.358	65546.91854
146.569	65597.41846
146.781	65512.53707
146.993	65595.12109
147.205	65448.46615
147.416	65549.21208
147.628	65540.039
147.84	65498.79582
148.051	65546.91854
148.263	65512.53707
148.475	65585.93345
148.686	65551.5058
148.898	65475.90802
149.109	65459.89716
149.321	65588.23009
149.532	65466.75789
149.744	65523.99306
149.955	65501.08558
150.167	65556.09379
150.378	65542.332
150.59	65572.15748
150.801	65611.20651
151.013	65597.41846
151.224	65459.89716
151.435	65546.91854
151.647	65459.89716
151.858	65514.82791
152.069	65546.91854
152.281	65549.21208
152.492	65519.41013
152.703	65553.79971
152.914	65418.76617
153.126	65514.82791
153.337	65519.41013
153.548	65615.804
153.759	65510.24642
153.97	65595.12109
154.181	65579.04465
154.392	65489.63856
154.604	65606.60976
154.815	65569.86212
155.026	65503.37552
155.237	65546.91854
155.448	65439.32452
155.659	65521.7015
155.87	65528.57671
156.081	65507.95594
156.292	65576.74874
156.502	65608.90804
156.713	65505.66564
156.924	65482.77249
157.135	65526.28479
157.346	65542.332
157.557	65505.66564
157.768	65572.15748
157.978	65613.50516
158.189	65517.11893
158.4	65579.04465
158.611	65517.11893
158.821	65466.75789
159.032	65556.09379
159.243	65487.34969
159.453	65535.45354
159.664	65535.45354
159.875	65496.50623
160.085	65572.15748
160.296	65496.50623
160.507	65556.09379
160.717	65581.34073
160.928	65494.21683
161.138	65698.68546
161.349	65553.79971
161.559	65620.40222
161.77	65551.5058
161.98	65574.45302
162.19	65501.08558
162.401	65556.09379
162.611	65489.63856
162.822	65562.97714
163.032	65556.09379
163.242	65569.86212
163.453	65489.63856
163.663	65592.82391
163.873	65517.11893
164.084	65579.04465
164.294	65590.52691
164.504	65540.039
164.714	65521.7015
164.924	65523.99306
165.135	65574.45302
165.345	65494.21683
165.555	65533.16108
165.765	65480.48416
165.975	65489.63856
166.185	65537.74618
166.395	65565.27195
166.605	65606.60976
166.815	65595.12109
167.025	65553.79971
167.235	65455.32423
167.445	65652.61047
167.655	65517.11893
167.865	65546.91854
168.075	65530.86881
168.285	65546.91854
168.495	65528.57671
168.705	65464.47081
168.915	65439.32452
169.124	65503.37552
169.334	65505.66564
169.544	65510.24642
169.754	65546.91854
169.964	65501.08558
170.173	65475.90802
170.383	65521.7015
170.593	65528.57671
170.802	65485.061
171.012	65588.23009
171.222	65551.5058
171.431	65592.82391
171.641	65558.38806
171.851	65613.50516
172.06	65572.15748
172.27	65574.45302
172.479	65507.95594
172.689	65569.86212
172.898	65517.11893
173.108	65560.68251
173.317	65494.21683
173.527	65599.71601
173.736	65604.31166
173.945	65530.86881
174.155	65491.92761
174.364	65494.21683
174.574	65530.86881
174.783	65542.332
174.992	65480.48416
175.202	65540.039
175.411	65482.77249
175.62	65569.86212
175.829	65583.637
176.039	65519.41013
176.248	65489.63856
176.457	65542.332
176.666	65457.6106
176.875	65574.45302
177.084	65503.37552
177.294	65581.34073
177.503	65595.12109
177.712	65453.03802
177.921	65576.74874
178.13	65544.62518
178.339	65631.90101
178.548	65565.27195
178.757	65533.16108
178.966	65494.21683
179.175	65507.95594
179.384	65551.5058
179.593	65528.57671
179.802	65606.60976
180.011	65533.16108
180.219	65553.79971
180.428	65523.99306
180.637	65523.99306
180.846	65494.21683
181.055	65526.28479
181.263	65551.5058
181.472	65448.46615
181.681	65581.34073
181.89	65517.11893
182.098	65450.752
182.307	65558.38806
182.516	65519.41013
182.724	65535.45354
182.933	65498.79582
183.142	65622.70161
183.35	65519.41013
183.559	65526.28479
183.767	65542.332
183.976	65572.15748
184.184	65585.93345
184.393	65512.53707
184.601	65572.15748
184.81	65453.03802
185.018	65576.74874
185.227	65514.82791
185.435	65595.12109
185.644	65498.79582
185.852	65641.10336
186.06	65496.50623
186.269	65496.50623
186.477	65491.92761
186.685	65540.039
186.894	65450.752
187.102	65535.45354
187.31	65466.75789
187.518	65540.039
187.727	65625.00118
187.935	65602.01374
188.143	65542.332
188.351	65510.24642
188.559	65602.01374
188.768	65464.47081
188.976	65485.061
189.184	65501.08558
189.392	65498.79582
189.6	65507.95594
189.808	65427.90145
190.016	65569.86212
190.224	65558.38806
190.432	65528.57671
190.64	65533.16108
190.848	65523.99306
191.056	65475.90802
191.264	65514.82791
191.472	65540.039
191.679	65556.09379
191.887	65549.21208
192.095	65631.90101
192.303	65512.53707
192.511	65562.97714
192.719	65638.80249
192.926	65482.77249
193.134	65638.80249
193.342	65567.56695
193.55	65546.91854
193.757	65540.039
193.965	65517.11893
194.173	65501.08558
194.38	65606.60976
194.588	65581.34073
194.796	65560.68251
195.003	65485.061
195.211	65581.34073
195.418	65562.97714
195.626	65629.60088
195.833	65523.99306
196.041	65480.48416
196.248	65540.039
196.456	65482.77249
196.663	65439.32452
196.871	65569.86212
197.078	65521.7015
197.285	65546.91854
197.493	65521.7015
197.7	65402.78616
197.908	65514.82791
198.115	65556.09379
198.322	65526.28479
198.529	65597.41846
198.737	65615.804
198.944	65521.7015
199.151	65613.50516
199.358	65579.04465
199.566	65657.21461
199.773	65448.46615
199.98	65544.62518
200.187	65574.45302
200.394	65537.74618
200.601	65416.48278
200.809	65627.30094
201.016	65514.82791
201.223	65507.95594
201.43	65622.70161
201.637	65565.27195
201.844	65569.86212
202.051	65643.40441
202.258	65519.41013
202.465	65560.68251
202.672	65631.90101
202.878	65537.74618
203.085	65565.27195
203.292	65519.41013
203.499	65489.63856
203.706	65537.74618
203.913	65535.45354
204.12	65597.41846
204.326	65579.04465
204.533	65590.52691
204.74	65480.48416
204.947	65528.57671
205.153	65540.039
205.36	65523.99306
205.567	65629.60088
205.773	65622.70161
205.98	65501.08558
206.187	65544.62518
206.393	65535.45354
206.6	65558.38806
206.806	65599.71601
207.013	65473.62022
207.22	65480.48416
207.426	65590.52691
207.633	65530.86881
207.839	65464.47081
208.046	65496.50623
208.252	65498.79582
208.458	65494.21683
208.665	65521.7015
208.871	65560.68251
209.078	65453.03802
209.284	65544.62518
209.49	65556.09379
209.697	65558.38806
209.903	65597.41846
210.109	65562.97714
210.316	65496.50623
210.522	65576.74874
210.728	65514.82791
210.934	65318.46192
211.14	65558.38806
211.347	65618.10302
211.553	65503.37552
211.759	65526.28479
211.965	65480.48416
212.171	65503.37552
212.377	65469.04516
212.583	65530.86881
212.789	65567.56695
212.996	65517.11893
213.202	65482.77249
213.408	65523.99306
213.614	65530.86881
213.82	65579.04465
214.025	65562.97714
214.231	65608.90804
214.437	65567.56695
214.643	65464.47081
214.849	65528.57671
215.055	65535.45354
215.261	65592.82391
215.467	65526.28479
215.672	65606.60976
215.878	65466.75789
216.084	65585.93345
216.29	65526.28479
216.496	65450.752
216.701	65494.21683
216.907	65588.23009
217.113	65528.57671
217.318	65459.89716
217.524	65572.15748
217.73	65583.637
217.935	65551.5058
218.141	65498.79582
218.346	65517.11893
218.552	65549.21208
218.758	65517.11893
218.963	65505.66564
219.169	65514.82791
219.374	65526.28479
219.58	65526.28479
219.785	65546.91854
219.991	65473.62022
220.196	65627.30094
220.401	65560.68251
220.607	65530.86881
220.812	65446.18048
221.017	65535.45354
221.223	65482.77249
221.428	65457.6106
221.633	65478.196
221.839	65526.28479
222.044	65585.93345
222.249	65517.11893
222.454	65510.24642
222.66	65512.53707
222.865	65558.38806
223.07	65411.91654
223.275	65533.16108
223.48	65501.08558
223.686	65585.93345
223.891	65615.804
224.096	65608.90804
224.301	65425.61737
224.506	65581.34073
224.711	65487.34969
224.916	65567.56695
225.121	65560.68251
225.326	65558.38806
225.531	65585.93345
225.736	65565.27195
225.941	65595.12109
226.146	65544.62518
226.351	65514.82791
226.555	65512.53707
226.76	65507.95594
226.965	65611.20651
227.17	65553.79971
227.375	65576.74874
227.58	65560.68251
227.784	65491.92761
227.989	65650.30868
228.194	65572.15748
228.399	65501.08558
228.603	65592.82391
228.808	65567.56695
229.013	65478.196
229.217	65530.86881
229.422	65583.637
229.627	65544.62518
229.831	65565.27195
230.036	65496.50623
230.24	65523.99306
230.445	65501.08558
230.649	65523.99306
230.854	65514.82791
231.058	65553.79971
231.263	65542.332
231.467	65510.24642
231.672	65549.21208
231.876	65530.86881
232.081	65480.48416
232.285	65503.37552
232.489	65501.08558
232.694	65569.86212
232.898	65480.48416
233.102	65437.03956
233.307	65523.99306
233.511	65546.91854
233.715	65498.79582
233.919	65475.90802
234.124	65590.52691
234.328	65629.60088
234.532	65526.28479
234.736	65487.34969
234.94	65581.34073
235.145	65521.7015
235.349	65510.24642
235.553	65416.48278
235.757	65425.61737
235.961	65583.637
236.165	65576.74874
236.369	65491.92761
236.573	65494.21683
236.777	65590.52691
236.981	65517.11893
237.185	65453.03802
237.389	65551.5058
237.593	65530.86881
237.797	65501.08558
238.001	65496.50623
238.205	65512.53707
238.409	65567.56695
238.612	65572.15748
238.816	65409.63369
239.02	65535.45354
239.224	65549.21208
239.428	65498.79582
239.631	65521.7015
239.835	65505.66564
240.039	65535.45354
240.243	65485.061
240.446	65459.89716
240.65	65585.93345
240.854	65684.85512
241.057	65510.24642
241.261	65585.93345
241.464	65606.60976
241.668	65482.77249
241.872	65572.15748
242.075	65533.16108
242.279	65521.7015
242.482	65569.86212
242.686	65560.68251
242.889	65469.04516
243.093	65572.15748
243.296	65475.90802
243.499	65533.16108
243.703	65535.45354
243.906	65595.12109
244.11	65505.66564
244.313	65540.039
244.516	65514.82791
244.72	65475.90802
244.923	65597.41846
245.126	65441.60966
245.33	65512.53707
245.533	65588.23009
245.736	65514.82791
245.939	65551.5058
246.142	65519.41013
246.346	65567.56695
246.549	65613.50516
246.752	65572.15748
246.955	65549.21208
247.158	65507.95594
247.361	65553.79971
247.564	65494.21683
247.767	65453.03802
247.971	65535.45354
248.174	65503.37552
248.377	65553.79971
248.58	65613.50516
248.783	65579.04465
248.985	65540.039
249.188	65553.79971
249.391	65505.66564
249.594	65535.45354
249.797	65583.637
250	65455.32423
250.203	65551.5058
250.406	65558.38806
250.609	65585.93345
250.811	65562.97714
251.014	65562.97714
251.217	65595.12109
251.42	65579.04465
251.622	65411.91654
251.825	65475.90802
252.028	65562.97714
252.231	65567.56695
252.433	65581.34073
252.636	65473.62022
252.838	65501.08558
253.041	65537.74618
253.244	65487.34969
253.446	65437.03956
253.649	65523.99306
253.851	65480.48416
254.054	65558.38806
254.256	65471.3326
254.459	65562.97714
254.661	65505.66564
254.864	65583.637
255.066	65379.97244
255.269	65542.332
255.471	65507.95594
255.673	65491.92761
255.876	65562.97714
256.078	65507.95594
256.281	65519.41013
256.483	65535.45354
256.685	65590.52691
256.887	65526.28479
257.09	65517.11893
257.292	65581.34073
257.494	65491.92761
257.696	65551.5058
257.899	65581.34073
258.101	65439.32452
258.303	65512.53707
258.505	65611.20651
258.707	65544.62518
258.909	65572.15748
259.111	65631.90101
259.314	65512.53707
259.516	65562.97714
259.718	65475.90802
259.92	65521.7015
260.122	65549.21208
260.324	65562.97714
260.526	65455.32423
260.728	65519.41013
260.93	65501.08558
261.131	65618.10302
261.333	65576.74874
261.535	65540.039
261.737	65567.56695
261.939	65494.21683
262.141	65530.86881
262.343	65487.34969
262.544	65505.66564
262.746	65505.66564
262.948	65588.23009
263.15	65537.74618
263.352	65466.75789
263.553	65535.45354
263.755	65588.23009
263.957	65462.18389
264.158	65498.79582
264.36	65521.7015
264.562	65485.061
264.763	65572.15748
264.965	65503.37552
265.166	65556.09379
265.368	65459.89716
265.569	65565.27195
265.771	65560.68251
265.972	65496.50623
266.174	65565.27195
266.375	65551.5058
266.577	65537.74618
266.778	65505.66564
266.98	65535.45354
267.181	65585.93345
267.383	65606.60976
267.584	65457.6106
267.785	65542.332
267.987	65562.97714
268.188	65611.20651
268.389	65496.50623
268.591	65606.60976
268.792	65604.31166
268.993	65507.95594
269.194	65562.97714
269.396	65471.3326
269.597	65523.99306
269.798	65574.45302
269.999	65521.7015
270.2	65604.31166
270.401	65466.75789
270.603	65565.27195
270.804	65581.34073
271.005	65583.637
271.206	65535.45354
271.407	65507.95594
271.608	65462.18389
271.809	65540.039
272.01	65526.28479
272.211	65553.79971
272.412	65491.92761
272.613	65485.061
272.814	65588.23009
273.015	65560.68251
273.216	65581.34073
273.416	65556.09379
273.617	65480.48416
273.818	65505.66564
274.019	65549.21208
274.22	65489.63856
274.421	65519.41013
274.621	65556.09379
274.822	65521.7015
275.023	65526.28479
275.224	65533.16108
275.424	65615.804
275.625	65648.00707
275.826	65542.332
276.026	65585.93345
276.227	65549.21208
276.428	65501.08558
276.628	65494.21683
276.829	65496.50623
277.029	65549.21208
277.23	65526.28479
277.43	65503.37552
277.631	65459.89716
277.831	65618.10302
278.032	65595.12109
278.232	65549.21208
278.433	65565.27195
278.633	65457.6106
278.834	65567.56695
279.034	65496.50623
279.234	65466.75789
279.435	65537.74618
279.635	65517.11893
279.835	65544.62518
280.036	65455.32423
280.236	65629.60088
280.436	65565.27195
280.637	65537.74618
280.837	65471.3326
281.037	65542.332
281.237	65542.332
281.438	65556.09379
281.638	65565.27195
281.838	65560.68251
282.038	65560.68251
282.238	65537.74618
282.438	65546.91854
282.638	65544.62518
282.838	65562.97714
283.038	65517.11893
283.239	65558.38806
283.439	65540.039
283.639	65443.89498
283.839	65574.45302
284.039	65514.82791
284.238	65540.039
284.438	65496.50623
284.638	65590.52691
284.838	65567.56695
285.038	65569.86212
285.238	65592.82391
285.438	65533.16108
285.638	65530.86881
285.838	65535.45354
286.037	65501.08558
286.237	65574.45302
286.437	65581.34073
286.637	65558.38806
286.836	65556.09379
287.036	65606.60976
287.236	65503.37552
287.436	65590.52691
287.635	65526.28479
287.835	65535.45354
288.034	65540.039
288.234	65446.18048
288.434	65512.53707
288.633	65549.21208
288.833	65583.637
289.032	65638.80249
289.232	65526.28479
289.431	65526.28479
289.631	65562.97714
289.83	65457.6106
290.03	65585.93345
290.229	65574.45302
290.429	65645.70565
290.628	65475.90802
290.828	65608.90804
291.027	65631.90101
291.226	65558.38806
291.426	65519.41013
291.625	65402.78616
291.824	65553.79971
292.024	65553.79971
292.223	65585.93345
292.422	65544.62518
292.621	65562.97714
292.821	65510.24642
293.02	65549.21208
293.219	65478.196
293.418	65583.637
293.617	65489.63856
293.817	65576.74874
294.016	65448.46615
294.215	65480.48416
294.414	65622.70161
294.613	65558.38806
294.812	65544.62518
295.011	65572.15748
295.21	65521.7015
295.409	65611.20651
295.608	65657.21461
295.807	65576.74874
296.006	65512.53707
296.205	65546.91854
296.404	65411.91654
296.603	65565.27195
296.802	65450.752
297.001	65574.45302
297.2	65572.15748
297.398	65590.52691
297.597	65478.196
297.796	65615.804
297.995	65599.71601
298.194	65496.50623
298.392	65560.68251
298.591	65553.79971
298.79	65597.41846
298.988	65565.27195
299.187	65560.68251
299.386	65530.86881
299.585	65549.21208
299.783	65533.16108
299.982	65469.04516
300.18	65567.56695
300.379	65556.09379
300.578	65558.38806
300.776	65615.804
300.975	65521.7015
301.173	65464.47081
301.372	65549.21208
301.57	65567.56695
301.769	65572.15748
301.967	65501.08558
302.166	65549.21208
302.364	65592.82391
302.562	65544.62518
302.761	65498.79582
302.959	65553.79971
303.157	65507.95594
303.356	65581.34073
303.554	65489.63856
303.752	65549.21208
303.951	65514.82791
304.149	65427.90145
304.347	65521.7015
304.546	65491.92761
304.744	65528.57671
304.942	65512.53707
305.14	65581.34073
305.338	65606.60976
305.536	65558.38806
305.735	65560.68251
305.933	65567.56695
306.131	65576.74874
306.329	65489.63856
306.527	65606.60976
306.725	65553.79971
306.923	65501.08558
307.121	65443.89498
307.319	65579.04465
307.517	65581.34073
307.715	65530.86881
307.913	65421.04972
308.111	65507.95594
308.309	65523.99306
308.507	65556.09379
308.705	65544.62518
308.903	65599.71601
309.1	65480.48416
309.298	65485.061
309.496	65526.28479
309.694	65562.97714
309.892	65588.23009
310.089	65595.12109
310.287	65544.62518
310.485	65574.45302
310.683	65530.86881
310.88	65549.21208
311.078	65556.09379
311.276	65491.92761
311.473	65542.332
311.671	65533.16108
311.869	65489.63856
312.066	65540.039
312.264	65537.74618
312.461	65459.89716
312.659	65480.48416
312.856	65491.92761
313.054	65569.86212
313.251	65565.27195
313.449	65478.196
313.646	65546.91854
313.844	65590.52691
314.041	65546.91854
314.239	65475.90802
314.436	65466.75789
314.634	65434.75477
314.831	65491.92761
315.028	65613.50516
315.226	65546.91854
315.423	65475.90802
315.62	65581.34073
315.817	65528.57671
316.015	65421.04972
316.212	65576.74874
316.409	65496.50623
316.606	65512.53707
316.804	65558.38806
317.001	65592.82391
317.198	65494.21683
317.395	65494.21683
317.592	65494.21683
317.789	65544.62518
317.987	65521.7015
318.184	65574.45302
318.381	65611.20651
318.578	65496.50623
318.775	65606.60976
318.972	65602.01374
319.169	65599.71601
319.366	65491.92761
319.563	65528.57671
319.76	65567.56695
319.957	65558.38806
320.154	65572.15748
320.351	65489.63856
320.547	65512.53707
320.744	65551.5058
320.941	65430.18572
321.138	65544.62518
321.335	65530.86881
321.532	65579.04465
321.728	65498.79582
321.925	65597.41846
322.122	65418.76617
322.319	65645.70565
322.515	65489.63856
322.712	65503.37552
322.909	65615.804
323.105	65620.40222
323.302	65480.48416
323.499	65459.89716
323.695	65507.95594
323.892	65537.74618
324.089	65494.21683
324.285	65560.68251
324.482	65569.86212
324.678	65620.40222
324.875	65574.45302
325.071	65523.99306
325.268	65528.57671
325.464	65553.79971
325.661	65533.16108
325.857	65546.91854
326.054	65581.34073
326.25	65507.95594
326.446	65505.66564
326.643	65526.28479
326.839	65549.21208
327.035	65629.60088
327.232	65480.48416
327.428	65625.00118
327.624	65618.10302
327.821	65535.45354
328.017	65595.12109
328.213	65572.15748
328.409	65535.45354
328.606	65514.82791
328.802	65517.11893
328.998	65551.5058
329.194	65613.50516
329.39	65491.92761
329.586	65535.45354
329.783	65496.50623
329.979	65523.99306
330.175	65553.79971
330.371	65535.45354
330.567	65551.5058
330.763	65523.99306
330.959	65588.23009
331.155	65560.68251
331.351	65569.86212
331.547	65505.66564
331.743	65645.70565
331.939	65542.332
332.135	65569.86212
332.33	65469.04516
332.526	65533.16108
332.722	65517.11893
332.918	65485.061
333.114	65588.23009
333.31	65432.47015
333.506	65459.89716
333.701	65537.74618
333.897	65648.00707
334.093	65494.21683
334.289	65599.71601
334.484	65434.75477
334.68	65450.752
334.876	65478.196
335.071	65544.62518
335.267	65473.62022
335.463	65556.09379
335.658	65553.79971
335.854	65664.12222
336.049	65540.039
336.245	65569.86212
336.441	65565.27195
336.636	65517.11893
336.832	65498.79582
337.027	65416.48278
337.223	65604.31166
337.418	65462.18389
337.613	65595.12109
337.809	65512.53707
338.004	65588.23009
338.2	65530.86881
338.395	65581.34073
338.591	65487.34969
338.786	65595.12109
338.981	65590.52691
339.177	65599.71601
339.372	65526.28479
339.567	65466.75789
339.762	65498.79582
339.958	65666.42513
340.153	65625.00118
340.348	64996.97348
340.543	65546.91854
340.739	65590.52691
340.934	65560.68251
341.129	65507.95594
341.324	65507.95594
341.519	65615.804
341.714	65680.2465
341.909	65595.12109
342.104	65535.45354
342.299	65544.62518
342.495	65567.56695
342.69	65585.93345
342.885	65572.15748
343.08	65286.61683
343.275	65453.03802
343.469	65556.09379
343.664	65501.08558
343.859	65544.62518
344.054	65606.60976
344.249	65588.23009
344.444	65533.16108
344.639	65567.56695
344.834	65592.82391
345.029	65540.039
345.223	65514.82791
345.418	65595.12109
345.613	65526.28479
345.808	65544.62518
346.003	65549.21208
346.197	65544.62518
346.392	65528.57671
346.587	65432.47015
346.781	65558.38806
346.976	65517.11893
347.171	65462.18389
347.365	65567.56695
347.56	65565.27195
347.755	65487.34969
347.949	65562.97714
348.144	65592.82391
348.338	65530.86881
348.533	65526.28479
348.727	65576.74874
348.922	65494.21683
349.116	65608.90804
349.311	65537.74618
349.505	65608.90804
349.7	65592.82391
349.894	65581.34073
350.089	65517.11893
350.283	65551.5058
350.477	65535.45354
350.672	65553.79971
350.866	65475.90802
351.06	65530.86881
351.255	65535.45354
351.449	65540.039
351.643	65540.039
351.837	65496.50623
352.032	65636.50181
352.226	65585.93345
352.42	65590.52691
352.614	65473.62022
352.809	65576.74874
353.003	65533.16108
353.197	65519.41013
353.391	65556.09379
353.585	65521.7015
353.779	65618.10302
353.973	65473.62022
354.167	65510.24642
354.361	65597.41846
354.555	65485.061
354.749	65553.79971
354.943	65576.74874
355.137	65512.53707
355.331	65560.68251
355.525	65574.45302
355.719	65512.53707
355.913	65551.5058
356.107	65523.99306
356.301	65553.79971
356.495	65549.21208
356.689	65540.039
356.883	65512.53707
357.076	65608.90804
357.27	65478.196
357.464	65574.45302
357.658	65475.90802
357.852	65546.91854
358.045	65514.82791
358.239	65588.23009
358.433	65562.97714
358.626	65574.45302
358.82	65546.91854
359.014	65526.28479
359.207	65535.45354
359.401	65627.30094
359.595	65514.82791
359.788	65567.56695
359.982	65540.039
360.175	65505.66564
360.369	65562.97714
360.563	65535.45354
360.756	65546.91854
360.95	65523.99306
361.143	65634.20132
361.336	65684.85512
361.53	65590.52691
361.723	65576.74874
361.917	65519.41013
362.11	65579.04465
362.304	65553.79971
362.497	65544.62518
362.69	65418.76617
362.884	65528.57671
363.077	65567.56695
363.27	65560.68251
363.464	65535.45354
363.657	65576.74874
363.85	65494.21683
364.043	65562.97714
364.237	65535.45354
364.43	65507.95594
364.623	65503.37552
364.816	65592.82391
365.009	65482.77249
365.202	65567.56695
365.396	65466.75789
365.589	65528.57671
365.782	65528.57671
365.975	65608.90804
366.168	65498.79582
366.361	65462.18389
366.554	65544.62518
366.747	65576.74874
366.94	65510.24642
367.133	65549.21208
367.326	65560.68251
367.519	65562.97714
367.712	65671.03151
367.905	65558.38806
368.098	65583.637
368.291	65441.60966
368.484	65544.62518
368.676	65514.82791
368.869	65615.804
369.062	65556.09379
369.255	65540.039
369.448	65503.37552
369.64	65528.57671
369.833	65567.56695
370.026	65494.21683
370.219	65611.20651
370.411	65439.32452
370.604	65625.00118
370.797	65528.57671
370.989	65501.08558
371.182	65618.10302
371.375	65489.63856
371.567	65519.41013
371.76	65551.5058
371.952	65620.40222
372.145	65523.99306
372.338	65517.11893
372.53	65526.28479
372.723	65604.31166
372.915	65551.5058
373.108	65579.04465
373.3	65512.53707
373.493	65505.66564
373.685	65503.37552
373.877	65597.41846
374.07	65487.34969
374.262	65478.196
374.455	65588.23009
374.647	65645.70565
374.839	65480.48416
375.032	65535.45354
375.224	65535.45354
375.416	65595.12109
375.609	65098.49615
375.801	65542.332
375.993	65588.23009
376.185	65599.71601
376.378	65551.5058
376.57	65530.86881
376.762	65526.28479
376.954	65512.53707
377.146	65498.79582
377.338	65590.52691
377.53	65581.34073
377.723	65496.50623
377.915	65585.93345
378.107	65544.62518
378.299	65576.74874
378.491	65572.15748
378.683	65526.28479
378.875	65567.56695
379.067	65478.196
379.259	65505.66564
379.451	65553.79971
379.643	65489.63856
379.835	65519.41013
380.027	65473.62022
380.219	65585.93345
380.41	65540.039
380.602	65533.16108
380.794	65631.90101
380.986	65576.74874
381.178	65546.91854
381.37	65553.79971
381.561	65537.74618
381.753	65455.32423
381.945	65469.04516
382.137	65535.45354
382.328	65565.27195
382.52	65576.74874
382.712	65569.86212
382.903	65473.62022
383.095	65556.09379
383.287	65602.01374
383.478	65514.82791
383.67	65574.45302
383.862	65533.16108
384.053	65526.28479
384.245	65572.15748
384.436	65503.37552
384.628	65530.86881
384.819	65558.38806
385.011	65498.79582
385.202	65551.5058
385.394	65572.15748
385.585	65446.18048
385.777	65567.56695
385.968	65608.90804
386.159	65544.62518
386.351	65537.74618
386.542	65510.24642
386.734	65462.18389
386.925	65562.97714
387.116	65521.7015
387.308	65526.28479
387.499	65588.23009
387.69	65503.37552
387.881	65462.18389
388.073	65537.74618
388.264	65535.45354
388.455	65622.70161
388.646	65489.63856
388.837	65507.95594
389.029	65530.86881
389.22	65556.09379
389.411	65576.74874
389.602	65533.16108
389.793	65567.56695
389.984	65546.91854
390.175	65517.11893
390.366	65503.37552
390.557	65599.71601
390.748	65540.039
390.939	65615.804
391.13	65562.97714
391.321	65526.28479
391.512	65558.38806
391.703	65544.62518
391.894	65572.15748
392.085	65595.12109
392.276	65585.93345
392.467	65599.71601
392.658	65581.34073
392.849	65535.45354
393.039	65565.27195
393.23	65549.21208
393.421	65523.99306
393.612	65540.039
393.803	65546.91854
393.993	65446.18048
394.184	65510.24642
394.375	65597.41846
394.566	65535.45354
394.756	65523.99306
394.947	65487.34969
395.138	65569.86212
395.328	65473.62022
395.519	65494.21683
395.709	65599.71601
395.9	65441.60966
396.091	65569.86212
396.281	65572.15748
396.472	65565.27195
396.662	65590.52691
396.853	65581.34073
397.043	65562.97714
397.234	65567.56695
397.424	65521.7015
397.615	65521.7015
397.805	65530.86881
397.996	65620.40222
398.186	65485.061
398.376	65466.75789
398.567	65579.04465
398.757	65549.21208
398.947	65680.2465
399.138	65496.50623
399.328	65485.061
399.518	65602.01374
399.709	65631.90101
399.899	65544.62518
400.089	65581.34073
400.279	65535.45354
400.47	65542.332
400.66	65540.039
400.85	65469.04516
401.04	65505.66564
401.23	65480.48416
401.421	65519.41013
401.611	65562.97714
401.801	65503.37552
401.991	65535.45354
402.181	65553.79971
402.371	65521.7015
402.561	65473.62022
402.751	65556.09379
402.941	65507.95594
403.131	65466.75789
403.321	65576.74874
403.511	65526.28479
403.701	65496.50623
403.891	65535.45354
404.081	65533.16108
404.271	65583.637
404.461	65464.47081
404.651	65592.82391
404.84	65514.82791
405.03	65505.66564
405.22	65581.34073
405.41	65569.86212
405.6	65482.77249
405.789	65487.34969
405.979	65471.3326
406.169	65611.20651
406.359	65544.62518
406.548	65595.12109
406.738	65595.12109
406.928	65469.04516
407.118	65503.37552
407.307	65489.63856
407.497	65537.74618
407.686	65480.48416
407.876	65588.23009
408.066	65567.56695
408.255	65576.74874
408.445	65569.86212
408.634	65496.50623
408.824	65517.11893
409.013	65560.68251
409.203	65482.77249
409.392	65517.11893
409.582	65521.7015
409.771	65615.804
409.961	65574.45302
410.15	65503.37552
410.34	65514.82791
410.529	65590.52691
410.718	65530.86881
410.908	65402.78616
411.097	65590.52691
411.286	65574.45302
411.476	65604.31166
411.665	65565.27195
411.854	65556.09379
412.044	65599.71601
412.233	65514.82791
412.422	65514.82791
412.611	65533.16108
412.8	65491.92761
412.99	65579.04465
413.179	65498.79582
413.368	65572.15748
413.557	65597.41846
413.746	65549.21208
413.935	65572.15748
414.124	65618.10302
414.313	65482.77249
414.503	65517.11893
414.692	65574.45302
414.881	65462.18389
415.07	65478.196
415.259	65551.5058
415.448	65475.90802
415.637	65533.16108
415.826	65514.82791
416.015	65606.60976
416.203	65551.5058
416.392	65501.08558
416.581	65562.97714
416.77	65521.7015
416.959	65510.24642
417.148	65569.86212
417.337	65581.34073
417.525	65526.28479
417.714	65507.95594
417.903	65585.93345
418.092	65581.34073
418.281	65514.82791
418.469	65523.99306
418.658	65528.57671
418.847	65558.38806
419.035	65592.82391
419.224	65606.60976
419.413	65583.637
419.601	65526.28479
419.79	65615.804
419.979	65551.5058
420.167	65585.93345
420.356	65549.21208
420.544	65512.53707
420.733	65581.34073
420.921	65560.68251
421.11	65512.53707
421.299	65498.79582
421.487	65542.332
421.675	65537.74618
421.864	65546.91854
422.052	65565.27195
422.241	65446.18048
422.429	65558.38806
422.618	65549.21208
422.806	65526.28479
422.994	65558.38806
423.183	65503.37552
423.371	65558.38806
423.559	65517.11893
423.748	65489.63856
423.936	65562.97714
424.124	65648.00707
424.312	65583.637
424.501	65526.28479
424.689	65549.21208
424.877	65546.91854
425.065	65544.62518
425.254	65562.97714
425.442	65400.50401
425.63	65469.04516
425.818	65459.89716
426.006	65549.21208
426.194	65455.32423
426.382	65473.62022
426.57	65505.66564
426.758	65521.7015
426.946	65558.38806
427.134	65496.50623
427.323	65574.45302
427.51	65544.62518
427.698	65530.86881
427.886	65501.08558
428.074	65464.47081
428.262	65645.70565
428.45	65535.45354
428.638	65528.57671
428.826	65503.37552
429.014	65576.74874
429.202	65650.30868
429.39	65613.50516
429.577	65473.62022
429.765	65475.90802
429.953	65471.3326
430.141	65546.91854
430.329	65503.37552
430.516	65572.15748
430.704	65411.91654
430.892	65560.68251
431.079	65634.20132
431.267	65475.90802
431.455	65611.20651
431.643	65464.47081
431.83	65512.53707
432.018	65501.08558
432.205	65560.68251
432.393	65608.90804
432.581	65544.62518
432.768	65475.90802
432.956	65480.48416
433.143	65521.7015
433.331	65494.21683
433.518	65560.68251
433.706	65542.332
433.893	65434.75477
434.081	65567.56695
434.268	65450.752
434.456	65583.637
434.643	65572.15748
434.83	65485.061
435.018	65485.061
435.205	65567.56695
435.392	65567.56695
435.58	65641.10336
435.767	65482.77249
435.954	65537.74618
436.142	65475.90802
436.329	65576.74874
436.516	65558.38806
436.703	65501.08558
436.891	65462.18389
437.078	65487.34969
437.265	65482.77249
437.452	65491.92761
437.639	65526.28479
437.827	65507.95594
438.014	65489.63856
438.201	65542.332
438.388	65485.061
438.575	65535.45354
438.762	65537.74618
438.949	65551.5058
439.136	65496.50623
439.323	65443.89498
439.51	65544.62518
439.697	65466.75789
439.884	65471.3326
440.071	65496.50623
440.258	65469.04516
440.445	65480.48416
440.632	65286.61683
440.819	65489.63856
441.006	65418.76617
441.193	65503.37552
441.38	65466.75789
441.566	65528.57671
441.753	65537.74618
441.94	65471.3326
442.127	65535.45354
442.314	65455.32423
442.5	65432.47015
442.687	65448.46615
442.874	65475.90802
443.061	65482.77249
443.247	65466.75789
443.434	65377.69202
443.621	65544.62518
443.807	65489.63856
443.994	65366.29255
444.181	65503.37552
444.367	65533.16108
444.554	65448.46615
444.74	65473.62022
444.927	65503.37552
445.114	65446.18048
445.3	65320.73785
445.487	65398.22202
445.673	65414.19958
445.86	65443.89498
446.046	65469.04516
446.233	65432.47015
446.419	65464.47081
446.605	65359.45495
446.792	65364.01318
446.978	65503.37552
447.165	65439.32452
447.351	65464.47081
447.537	65478.196
447.724	65487.34969
447.91	65373.13171
448.096	65398.22202
448.283	65334.39703
448.469	65437.03956
448.655	65421.04972
448.841	65368.5721
449.028	65407.351
449.214	65393.65858
449.4	65370.85182
449.586	65391.37712
449.773	65364.01318
449.959	65391.37712
450.145	65277.52436
450.331	65407.351
450.517	65437.03956
450.703	65316.18616
450.889	65409.63369
451.075	65354.89741
451.261	65279.79723
451.447	65272.97915
451.633	65352.6189
451.819	65341.22894
452.005	65270.70679
452.191	65338.95146
452.377	65320.73785
452.563	65297.98624
452.749	65302.5352
452.935	65277.52436
453.121	65238.91156
453.307	65268.43461
453.493	65211.6847
453.679	65252.53404
453.865	65223.02629
454.05	65195.81346
454.236	65241.18155
454.422	65307.08484
454.608	65263.89074
454.794	65284.34346
454.979	65293.43797
455.165	65261.61907
455.351	65202.61442
455.537	65207.14923
455.722	65132.40962
455.908	65213.95268
456.094	65150.51183
456.279	65130.14758
456.465	65096.23655
456.65	65191.28032
456.836	65159.56688
457.022	65148.24848
457.207	65164.09539
457.393	65116.57877
457.578	65168.62456
457.764	65071.39166
457.949	65143.72227
458.135	65082.68237
458.32	65218.48915
458.506	65170.88939
458.691	65134.67182
458.877	65114.31788
459.062	65179.95037
459.248	65186.74785
459.433	65062.362
459.618	65039.79907
459.804	65136.93419
459.989	65044.31037
460.174	65039.79907
460.36	65066.87651
460.545	65080.42391
460.73	65096.23655
460.915	65084.941
461.101	65093.97712
461.286	65062.362
461.471	65080.42391
461.656	65193.54681
461.842	65039.79907
462.027	65069.13401
462.212	65039.79907
462.397	65021.76024
462.582	65053.3349
462.767	64951.95557
462.952	65148.24848
463.138	65033.03331
463.323	64956.45453
463.508	65053.3349
463.693	65012.74465
463.878	65044.31037
464.063	64954.20497
464.248	64990.21677
464.433	64990.21677
464.618	64990.21677
464.803	64985.7131
464.988	64987.96486
465.173	64920.4803
465.357	64960.95412
465.542	64965.45434
465.727	64868.83684
465.912	64918.23323
466.097	64974.45666
466.282	64974.45666
466.467	64918.23323
466.651	64873.32435
466.836	64873.32435
467.021	65030.77838
467.206	64924.9749
467.391	64983.46149
467.575	64945.2083
467.76	64936.21412
467.945	64850.89295
468.129	64882.3012
468.314	64844.16651
468.499	64960.95412
468.683	64832.95882
468.868	64913.73957
469.053	64902.5081
469.237	64886.79054
469.422	64832.95882
469.606	64889.03544
469.791	64951.95557
469.975	64871.08052
470.16	64898.0166
470.344	64862.10674
470.529	64933.96596
470.713	64765.79199
470.898	64927.22243
471.082	64889.03544
471.267	64936.21412
471.451	64920.4803
471.636	65037.54366
471.82	64927.22243
472.004	64797.11965
472.189	64915.98632
472.373	64990.21677
472.557	64972.20584
472.742	64958.70425
472.926	64967.70469
473.11	64978.95876
473.295	64884.54579
473.479	64893.52571
473.663	64902.5081
473.847	64965.45434
474.031	64956.45453
474.216	64951.95557
474.4	64976.70763
474.584	64969.95519
474.768	64931.71797
474.952	64866.59332
475.136	64864.34995
475.32	64996.97348
475.505	64884.54579
475.689	64830.71773
475.873	64904.75409
476.057	64895.77108
476.241	64942.95952
476.425	64868.83684
476.609	64832.95882
476.793	64909.24652
476.977	64978.95876
477.161	64873.32435
477.345	64855.37801
477.529	64972.20584
477.713	64817.27442
477.896	64954.20497
478.08	64799.35847
478.264	64866.59332
478.448	64891.2805
478.632	64821.75492
478.816	65030.77838
478.999	64837.44144
479.183	64920.4803
479.367	64889.03544
479.551	64725.55653
479.735	64828.4768
479.918	64864.34995
480.102	64797.11965
480.286	64835.20005
480.469	64902.5081
480.653	64799.35847
480.837	64815.0344
481.02	64841.92467
481.204	64801.59744
481.388	64772.50259
481.571	64674.21417
481.755	64810.55481
481.938	64801.59744
482.122	64837.44144
482.305	64741.19794
482.489	64658.60359
482.673	64703.22422
482.856	64776.97707
483.04	64770.26558
483.223	64761.31901
483.406	64781.45215
483.59	64776.97707
483.773	64721.08889
483.957	64801.59744
484.14	64692.06358
484.323	64656.37409
484.507	64698.75952
484.69	64732.25911
484.874	64803.83655
485.057	64750.13915
485.24	64705.45679
485.423	64841.92467
485.607	64683.1377
485.79	64741.19794
485.973	64696.5274
486.156	64631.85916
486.34	64647.45755
486.523	64629.6314
486.706	64689.83189
486.889	64761.31901
487.072	64656.37409
487.256	64636.31512
487.439	64696.5274
487.622	64638.54331
487.805	64692.06358
487.988	64663.06303
488.171	64631.85916
488.354	64620.72179
488.537	64685.36895
488.72	64638.54331
488.903	64614.04109
489.086	64667.52305
489.269	64627.40378
489.452	64622.94897
489.635	64571.75995
489.818	64462.9546
490.001	64700.9918
490.184	64660.83324
490.367	64658.60359
490.55	64562.86522
490.732	64456.30393
490.915	64600.68357
491.098	64562.86522
491.281	64687.60035
491.464	64614.04109
491.647	64640.77165
491.829	64647.45755
492.012	64556.19565
492.195	64502.88485
492.378	64591.78143
492.56	64447.4383
492.743	64469.60652
492.926	64440.79052
493.108	64580.65696
493.291	64560.64189
493.474	64423.06916
493.656	64438.57487
493.839	64383.22805
494.022	64449.6545
494.204	64378.80398
494.387	64405.35655
494.569	64542.86035
494.752	64411.99775
494.934	64436.35936
495.117	64423.06916
495.299	64460.73757
495.482	64392.07782
495.664	64345.64066
495.847	64427.49867
496.029	64467.38908
496.212	64215.48875
496.394	64438.57487
496.576	64392.07782
496.759	64485.13251
496.941	64308.09204
497.123	64153.88072
497.306	64460.73757
497.488	64374.38045
497.67	64443.00631
497.853	64436.35936
498.035	64310.29971
498.217	64244.12695
498.4	64314.71546
498.582	64465.17177
498.764	64389.86518
498.946	64319.13175
499.128	64332.3838
499.311	64361.1131
499.493	64454.08732
499.675	64321.34009
499.857	64283.81636
500.039	64246.33081
500.221	64283.81636
500.403	64263.96634
500.585	64162.6757
500.767	64224.29816
500.949	64263.96634
501.132	64288.22893
501.314	64321.34009
501.496	64180.27181
501.678	64394.2906
501.859	64250.7389
502.041	64241.92323
502.223	64241.92323
502.405	64274.99281
502.587	64178.07185
502.769	64202.27852
502.951	64200.07727
503.133	64228.70365
503.315	64283.81636
503.497	64257.35203
503.678	64248.53479
503.86	64336.80221
504.042	64131.90221
504.224	64162.6757
504.406	64222.09561
504.587	64277.1985
504.769	64230.90658
504.951	64206.68141
505.132	64314.71546
505.314	64248.53479
505.496	64211.08482
505.678	64277.1985
505.859	64259.55667
506.041	64211.08482
506.222	64226.50084
506.404	64222.09561
506.586	64235.31285
506.767	64171.47273
506.949	64279.40432
507.13	64228.70365
507.312	64237.51618
507.493	64096.76296
507.675	64213.28672
507.856	64211.08482
508.038	64301.46981
508.219	64279.40432
508.401	64277.1985
508.582	64182.4719
508.764	64219.89319
508.945	64186.87247
509.126	64274.99281
509.308	64257.35203
509.489	64241.92323
509.671	64299.26267
509.852	64206.68141
510.033	64299.26267
510.214	64272.78725
510.396	64312.50752
510.577	64378.80398
510.758	64195.67515
510.94	64206.68141
511.121	64241.92323
511.302	64244.12695
511.483	64279.40432
511.664	64215.48875
511.846	64327.96591
512.027	64246.33081
512.208	64310.29971
512.389	64297.05565
512.57	64213.28672
512.751	64250.7389
512.932	64233.10965
513.113	64142.88987
513.294	64266.17137
513.476	64252.94315
513.657	64286.02258
513.838	64361.1131
514.019	64222.09561
514.2	64301.46981
514.381	64246.33081
514.561	64226.50084
514.742	64323.54856
514.923	64255.14752
515.104	64237.51618
515.285	64281.61028
515.466	64312.50752
515.647	64350.06068
515.828	64204.4799
516.009	64248.53479
516.189	64323.54856
516.37	64358.90235
516.551	64332.3838
516.732	64332.3838
516.913	64297.05565
517.093	64325.75717
517.274	64332.3838
517.455	64173.67231
517.636	64246.33081
517.816	64237.51618
517.997	64261.76144
518.178	64268.37653
518.358	64367.74617
518.539	64294.84877
518.72	64277.1985
518.9	64266.17137
519.081	64279.40432
519.261	64228.70365
519.442	64145.08779
519.622	64261.76144
519.803	64266.17137
519.984	64215.48875
520.164	64292.64203
520.345	64272.78725
520.525	64259.55667
520.705	64314.71546
520.886	64211.08482
521.066	64425.28385
521.247	64281.61028
521.427	64286.02258
521.608	64127.50803
521.788	64312.50752
521.968	64114.32854
522.149	64330.17479
522.329	64252.94315
522.509	64361.1131
522.69	64312.50752
522.87	64341.22117
523.05	64367.74617
523.231	64347.8506
523.411	64308.09204
523.591	64255.14752
523.771	64336.80221
523.951	64250.7389
524.132	64233.10965
524.312	64283.81636
524.492	64312.50752
524.672	64257.35203
524.852	64233.10965
525.032	64294.84877
525.213	64261.76144
525.393	64193.47429
525.573	64369.95746
525.753	64222.09561
525.933	64248.53479
526.113	64255.14752
526.293	64358.90235
526.473	64327.96591
526.653	64182.4719
526.833	64319.13175
527.013	64376.59215
527.193	64292.64203
527.373	64308.09204
527.553	64281.61028
527.733	64250.7389
527.913	64339.01162
528.092	64478.47768
528.272	64263.96634
528.452	64321.34009
528.632	64400.92976
528.812	64305.8845
528.992	64255.14752
529.171	64288.22893
529.351	64383.22805
529.531	64376.59215
529.711	64272.78725
529.89	64374.38045
530.07	64266.17137
530.25	64180.27181
530.43	64184.67212
530.609	64308.09204
530.789	64290.43541
530.969	64279.40432
531.148	64347.8506
531.328	64385.44029
531.507	64339.01162
531.687	64252.94315
531.867	64378.80398
532.046	64237.51618
532.226	64343.43085
532.405	64281.61028
532.585	64303.67709
532.764	64325.75717
532.944	64180.27181
533.123	64308.09204
533.303	64358.90235
533.482	64182.4719
533.662	64334.59294
533.841	64277.1985
534.021	64241.92323
534.2	64330.17479
534.379	64374.38045
534.559	64312.50752
534.738	64272.78725
534.917	64414.21176
535.097	64303.67709
535.276	64299.26267
535.455	64257.35203
535.635	64392.07782
535.814	64336.80221
535.993	64268.37653
536.172	64400.92976
536.352	64363.32399
536.531	64383.22805
536.71	64290.43541
536.889	64310.29971
537.068	64350.06068
537.248	64369.95746
537.427	64233.10965
537.606	64303.67709
537.785	64308.09204
537.964	64323.54856
538.143	64387.65267
538.322	64339.01162
538.501	64305.8845
538.68	64361.1131
538.859	64257.35203
539.038	64396.50352
539.217	64396.50352
539.396	64465.17177
539.575	64321.34009
539.754	64303.67709
539.933	64268.37653
540.112	64489.56976
540.291	64327.96591
540.47	64330.17479
540.649	64332.3838
540.828	64489.56976
541.007	64299.26267
541.186	64407.57015
541.364	64308.09204
541.543	64389.86518
541.722	64345.64066
541.901	64383.22805
542.08	64233.10965
542.258	64270.58183
542.437	64414.21176
542.616	64279.40432
542.795	64434.14398
542.973	64389.86518
543.152	64398.71658
543.331	64376.59215
543.509	64423.06916
543.688	64303.67709
543.867	64400.92976
544.045	64414.21176
544.224	64263.96634
544.402	64004.67496
544.581	64367.74617
544.76	64465.17177
544.938	64358.90235
545.117	64327.96591
545.295	64376.59215
545.474	64374.38045
545.652	64449.6545
545.831	64400.92976
546.009	64270.58183
546.188	64374.38045
546.366	64387.65267
546.544	64365.53501
546.723	64361.1131
546.901	64354.48125
547.08	64297.05565
547.258	64407.57015
547.436	64405.35655
547.615	64454.08732
547.793	64381.01595
547.971	64363.32399
548.15	64378.80398
548.328	64325.75717
548.506	64263.96634
548.684	64237.51618
548.863	64398.71658
549.041	64429.71364
549.219	64487.35107
549.397	64350.06068
549.576	64400.92976
549.754	64358.90235
549.932	64385.44029
550.11	64427.49867
550.288	64462.9546
550.466	64549.52737
550.644	64325.75717
550.822	64423.06916
551.001	64462.9546
551.179	64516.20496
551.357	64451.87084
551.535	64394.2906
551.713	64454.08732
551.891	64458.52068
552.069	64502.88485
552.247	64462.9546
552.425	64498.44593
552.603	64498.44593
552.781	64476.25969
552.958	64507.32433
553.136	64485.13251
553.314	64600.68357
553.492	64556.19565
553.67	64582.88157
553.848	64596.23222
554.026	64694.29541
554.204	64676.44483
554.381	64616.26784
554.559	64678.67565
554.737	64752.37482
554.915	64685.36895
555.092	64643.00014
555.27	64716.62184
555.448	64678.67565
555.626	64730.02477
555.803	64817.27442
555.981	64645.22877
556.159	64774.73976
556.336	64783.68992
556.514	64846.4085
556.692	64801.59744
556.869	64774.73976
557.047	64770.26558
557.224	64801.59744
557.402	64817.27442
557.58	64741.19794
557.757	64855.37801
557.935	64954.20497
558.112	64859.86367
558.29	64848.65065
558.467	64954.20497
558.645	64956.45453
558.822	64969.95519
559	64942.95952
559.177	64918.23323
559.354	64893.52571
559.532	64900.26227
559.709	64931.71797
559.887	64893.52571
560.064	64994.72108
560.241	64871.08052
560.419	64891.2805
560.596	64871.08052
560.773	64864.34995
560.951	64846.4085
561.128	64730.02477
561.305	64958.70425
561.482	64900.26227
561.66	64848.65065
561.837	64844.16651
562.014	64893.52571
562.191	64967.70469
562.368	64913.73957
562.546	64846.4085
562.723	64947.45723
562.9	64915.98632
563.077	64841.92467
563.254	64938.46243
563.431	64907.00022
563.608	64819.5146
563.785	64936.21412
563.962	64875.56833
564.139	64965.45434
564.317	64848.65065
564.494	64981.21005
564.671	64783.68992
564.848	64880.05675
565.025	64931.71797
565.201	64958.70425
565.378	64889.03544
565.555	64886.79054
565.732	64922.72752
565.909	64931.71797
566.086	64913.73957
566.263	64963.20415
566.44	64918.23323
566.617	64958.70425
566.794	64880.05675
566.97	64942.95952
567.147	65012.74465
567.324	64915.98632
567.501	64976.70763
567.678	64913.73957
567.854	64936.21412
568.031	65046.56627
568.208	64915.98632
568.384	64981.21005
568.561	64956.45453
568.738	64981.21005
568.915	64958.70425
569.091	65033.03331
569.268	64992.46885
569.444	65042.05464
569.621	65012.74465
569.798	65039.79907
569.974	64983.46149
570.151	64978.95876
570.327	64994.72108
570.504	64967.70469
570.681	65062.362
570.857	65030.77838
571.034	65039.79907
571.21	64990.21677
571.387	65136.93419
571.563	65109.79657
571.739	64947.45723
571.916	65159.56688
572.092	65084.941
572.269	65033.03331
572.445	65046.56627
572.622	65093.97712
572.798	65033.03331
572.974	65087.19978
573.151	65143.72227
573.327	65084.941
573.503	64983.46149
573.68	65145.9853
573.856	65139.19672
574.032	65143.72227
574.208	65024.01454
574.385	65048.82232
574.561	65161.83105
574.737	65134.67182
574.913	65030.77838
575.089	65134.67182
575.266	65139.19672
575.442	65150.51183
575.618	64990.21677
575.794	65112.05714
575.97	65121.10106
576.146	65051.07853
576.322	65116.57877
576.499	65008.23781
576.675	65026.26899
576.851	65028.52361
577.027	64951.95557
577.203	65084.941
577.379	65125.62399
577.555	65080.42391
577.731	65035.28841
577.907	64709.92237
578.083	64990.21677
578.259	65062.362
578.435	65037.54366
578.611	64918.23323
578.786	64933.96596
578.962	64985.7131
579.138	65098.49615
579.314	64990.21677
579.49	65062.362
579.666	64965.45434
579.842	65042.05464
580.017	65042.05464
580.193	65028.52361
580.369	64976.70763
580.545	65001.47873
580.72	64907.00022
580.896	65037.54366
581.072	64927.22243
581.248	64974.45666
581.423	64902.5081
581.599	65005.98463
581.775	64965.45434
581.95	64967.70469
582.126	64994.72108
582.302	64898.0166
582.477	64960.95412
582.653	65021.76024
582.829	65005.98463
583.004	65096.23655
583.18	64992.46885
583.355	65030.77838
583.531	64960.95412
583.706	64938.46243
583.882	65030.77838
584.057	65114.31788
584.233	64976.70763
584.408	64877.81246
584.584	64996.97348
584.759	65060.10498
584.935	65060.10498
585.11	65046.56627
585.285	65080.42391
585.461	65152.77535
585.636	65053.3349
585.812	65071.39166
585.987	65139.19672
586.162	65125.62399
586.338	65066.87651
586.513	65161.83105
586.688	65223.02629
586.863	65100.75591
587.039	65157.30287
587.214	65132.40962
587.389	65127.88571
587.564	65168.62456
587.74	65125.62399
587.915	65293.43797
588.09	65238.91156
588.265	65175.41955
588.44	65252.53404
588.615	65236.64173
588.791	65225.29511
588.966	65279.79723
589.141	65297.98624
589.316	65218.48915
589.491	65232.10258
589.666	65202.61442
589.841	65166.35989
590.016	65277.52436
590.191	65193.54681
590.366	65325.29022
590.541	65343.50659
590.716	65293.43797
590.891	65270.70679
591.066	65366.29255
591.241	65341.22894
591.416	65359.45495
591.591	65348.0624
591.766	65348.0624
591.941	65462.18389
592.116	65475.90802
592.29	65357.17609
592.465	65405.0685
592.64	65519.41013
592.815	65453.03802
592.99	65503.37552
593.165	65462.18389
593.339	65485.061
593.514	65455.32423
593.689	65377.69202
593.864	65459.89716
594.038	65487.34969
594.213	65379.97244
594.388	65462.18389
594.562	65439.32452
594.737	65377.69202
594.912	65457.6106
595.086	65514.82791
595.261	65466.75789
595.436	65395.94021
595.61	65416.48278
595.785	65409.63369
595.959	65405.0685
596.134	65446.18048
596.309	65443.89498
596.483	65450.752
596.658	65439.32452
596.832	65466.75789
597.007	65341.22894
597.181	65498.79582
597.356	65414.19958
597.53	65503.37552
597.704	65475.90802
597.879	65434.75477
598.053	65439.32452
598.228	65352.6189
598.402	65350.34056
598.576	65450.752
598.751	65366.29255
598.925	65425.61737
599.1	65425.61737
599.274	65471.3326
599.448	65437.03956
599.622	65343.50659
599.797	65421.04972
599.971	65421.04972
600.145	65297.98624
600.32	65393.65858
600.494	65418.76617
600.668	65370.85182
600.842	65359.45495
601.016	65469.04516
601.191	65370.85182
601.365	65161.83105
601.539	65391.37712
601.713	65425.61737
601.887	65334.39703
602.061	65450.752
602.235	65373.13171
602.409	65443.89498
602.583	65382.25303
602.758	65505.66564
602.932	65443.89498
603.106	65507.95594
603.28	65457.6106
603.454	65411.91654
603.628	65366.29255
603.802	65462.18389
603.976	65446.18048
604.149	65427.90145
604.323	65382.25303
604.497	65459.89716
604.671	65377.69202
604.845	65411.91654
605.019	65450.752
605.193	65462.18389
605.367	65375.41178
605.541	65407.351
605.714	65352.6189
605.888	65361.73397
606.062	65432.47015
606.236	65535.45354
606.41	65318.46192
606.583	65443.89498
606.757	65466.75789
606.931	65411.91654
607.105	65446.18048
607.278	65450.752
607.452	65496.50623
607.626	65361.73397
607.799	65446.18048
607.973	65464.47081
608.147	65405.0685
608.32	65462.18389
608.494	65416.48278
608.668	65443.89498
608.841	65343.50659
609.015	65354.89741
609.188	65407.351
609.362	65517.11893
609.535	65430.18572
609.709	65455.32423
609.882	65418.76617
610.056	65391.37712
610.229	65421.04972
610.403	65423.33346
610.576	65318.46192
610.75	65391.37712
610.923	65421.04972
611.097	65478.196
611.27	65345.78441
611.443	65411.91654
611.617	65512.53707
611.79	65517.11893
611.963	65409.63369
612.137	65421.04972
612.31	65416.48278
612.483	65443.89498
612.657	65427.90145
612.83	65485.061
613.003	65482.77249
613.177	65443.89498
613.35	65462.18389
613.523	65421.04972
613.696	65398.22202
613.869	65535.45354
614.043	65373.13171
614.216	65421.04972
614.389	65459.89716
614.562	65382.25303
614.735	65437.03956
614.908	65446.18048
615.082	65379.97244
615.255	65425.61737
615.428	65389.09584
615.601	65466.75789
615.774	65439.32452
615.947	65393.65858
616.12	65297.98624
616.293	65334.39703
616.466	65348.0624
616.639	65366.29255
616.812	65398.22202
616.985	65316.18616
617.158	65395.94021
617.331	65414.19958
617.504	65393.65858
617.677	65471.3326
617.85	65425.61737
618.022	65439.32452
618.195	65421.04972
618.368	65357.17609
618.541	65343.50659
618.714	65423.33346
618.887	65411.91654
619.059	65377.69202
619.232	65421.04972
619.405	65263.89074
619.578	65293.43797
619.751	65402.78616
619.923	65379.97244
620.096	65311.63516
620.269	65332.12007
620.441	65382.25303
620.614	65423.33346
620.787	65350.34056
620.96	65364.01318
621.132	65268.43461
621.305	65241.18155
621.477	65297.98624
621.65	65384.53379
621.823	65398.22202
621.995	65293.43797
622.168	65302.5352
622.34	65304.80993
622.513	65316.18616
622.685	65311.63516
622.858	65293.43797
623.03	65352.6189
623.203	65379.97244
623.375	65332.12007
623.548	65373.13171
623.72	65304.80993
623.893	65307.08484
624.065	65329.84328
624.238	65323.01395
624.41	65423.33346
624.582	65261.61907
624.755	65338.95146
624.927	65316.18616
625.1	65309.35991
625.272	65382.25303
625.444	65275.25167
625.617	65189.014
625.789	65266.16259
625.961	65327.56667
626.133	65263.89074
626.306	65250.26321
626.478	65250.26321
626.65	65234.37207
626.822	65316.18616
626.995	65213.95268
627.167	65225.29511
627.339	65295.71202
627.511	65186.74785
627.683	65225.29511
627.855	65195.81346
628.027	65275.25167
628.2	65209.41688
628.372	65234.37207
628.544	65236.64173
628.716	65234.37207
628.888	65211.6847
629.06	65148.24848
629.232	65311.63516
629.404	65236.64173
629.576	65152.77535
629.748	65252.53404
629.92	65114.31788
630.092	65103.01583
630.264	65200.34727
630.436	65277.52436
630.608	65209.41688
630.78	65204.88174
630.952	65247.99254
631.124	65170.88939
631.295	65193.54681
631.467	65245.72204
631.639	65161.83105
631.811	65241.18155
631.983	65220.75764
632.155	65220.75764
632.326	65216.22083
632.498	65211.6847
632.67	65220.75764
632.842	65254.80504
633.014	65200.34727
633.185	65143.72227
633.357	65232.10258
633.529	65105.27592
633.7	65139.19672
633.872	65254.80504
634.044	65257.07622
634.215	65145.9853
634.387	65220.75764
634.559	65297.98624
634.73	65241.18155
634.902	65288.89037
635.074	65225.29511
635.245	65216.22083
635.417	65238.91156
635.588	65152.77535
635.76	65297.98624
635.931	65284.34346
636.103	65297.98624
636.274	65193.54681
636.446	65245.72204
636.617	65179.95037
636.789	65272.97915
636.96	65266.16259
637.132	65286.61683
637.303	65275.25167
637.474	65307.08484
637.646	65225.29511
637.817	65300.26063
637.989	65252.53404
638.16	65311.63516
638.331	65334.39703
638.503	65198.08028
638.674	65229.83326
638.845	65334.39703
639.017	65245.72204
639.188	65247.99254
639.359	65336.67416
639.53	65323.01395
639.702	65252.53404
639.873	65332.12007
640.044	65295.71202
640.215	65307.08484
640.387	65207.14923
640.558	65189.014
640.729	65161.83105
640.9	65191.28032
641.071	65202.61442
641.242	65207.14923
641.413	65218.48915
641.585	65263.89074
641.756	65191.28032
641.927	65318.46192
642.098	65243.45171
642.269	65241.18155
642.44	65307.08484
642.611	65234.37207
642.782	65241.18155
642.953	65150.51183
643.124	65193.54681
643.295	65316.18616
643.466	65182.21603
643.637	65245.72204
643.808	65227.5641
643.979	65159.56688
644.15	65132.40962
644.32	65186.74785
644.491	65204.88174
644.662	65352.6189
644.833	65229.83326
645.004	65195.81346
645.175	65238.91156
645.346	65175.41955
645.516	65268.43461
645.687	65220.75764
645.858	65223.02629
646.029	65173.15439
646.199	65254.80504
646.37	65216.22083
646.541	65279.79723
646.712	65152.77535
646.882	65200.34727
647.053	65232.10258
647.224	65227.5641
647.394	65213.95268
647.565	65218.48915
647.736	65257.07622
647.906	65291.16409
648.077	65218.48915
648.248	65288.89037
648.418	65261.61907
648.589	65304.80993
648.759	65245.72204
648.93	65247.99254
649.1	65307.08484
649.271	65175.41955
649.441	65184.48186
649.612	65257.07622
649.782	65182.21603
649.953	65164.09539
650.123	65216.22083
650.294	65157.30287
650.464	65198.08028
650.635	64904.75409
650.805	65220.75764
650.975	65093.97712
651.146	65257.07622
651.316	65211.6847
651.487	65241.18155
651.657	65243.45171
651.827	65175.41955
651.998	65297.98624
652.168	65184.48186
652.338	65247.99254
652.508	65313.91057
652.679	65236.64173
652.849	65157.30287
653.019	65193.54681
653.189	65189.014
653.36	65202.61442
653.53	65297.98624
653.7	65204.88174
653.87	65318.46192
654.04	65252.53404
654.211	65270.70679
654.381	65175.41955
654.551	65288.89037
654.721	65198.08028
654.891	65272.97915
655.061	65195.81346
655.231	65307.08484
655.401	65320.73785
655.571	65286.61683
655.741	65204.88174
655.911	65252.53404
656.081	65191.28032
656.251	65323.01395
656.421	65218.48915
656.591	65313.91057
656.761	65229.83326
656.931	65354.89741
657.101	65320.73785
657.271	65266.16259
657.441	65243.45171
657.611	65357.17609
657.781	65247.99254
657.951	65291.16409
658.121	65229.83326
658.291	65225.29511
658.46	65332.12007
658.63	65259.34756
658.8	65286.61683
658.97	65254.80504
659.14	65202.61442
659.309	65282.07026
659.479	65236.64173
659.649	65311.63516
659.819	65227.5641
659.988	65348.0624
660.158	65379.97244
660.328	65259.34756
660.497	65323.01395
660.667	65309.35991
660.837	65259.34756
661.006	65238.91156
661.176	65398.22202
661.346	65288.89037
661.515	65329.84328
661.685	65334.39703
661.854	65291.16409
662.024	65318.46192
662.194	65279.79723
662.363	65268.43461
662.533	65320.73785
662.702	65416.48278
662.872	65366.29255
663.041	65257.07622
663.211	65402.78616
663.38	65459.89716
663.55	65323.01395
663.719	65318.46192
663.889	65441.60966
664.058	65398.22202
664.227	65343.50659
664.397	65329.84328
664.566	65327.56667
664.735	65416.48278
664.905	65377.69202
665.074	65377.69202
665.244	65361.73397
665.413	65425.61737
665.582	65338.95146
665.751	65373.13171
665.921	65375.41178
666.09	65384.53379
666.259	65336.67416
666.428	65379.97244
666.598	65384.53379
666.767	65327.56667
666.936	65336.67416
667.105	65316.18616
667.275	65368.5721
667.444	65366.29255
667.613	65272.97915
667.782	65425.61737
667.951	65329.84328
668.12	65357.17609
668.289	65368.5721
668.458	65320.73785
668.628	65423.33346
668.797	65391.37712
668.966	65407.351
669.135	65288.89037
669.304	65359.45495
669.473	65359.45495
669.642	65386.81473
669.811	65389.09584
669.98	65341.22894
670.149	65318.46192
670.318	65434.75477
670.487	65402.78616
670.656	65348.0624
670.824	65393.65858
670.993	65443.89498
671.162	65345.78441
671.331	65332.12007
671.5	65395.94021
671.669	65416.48278
671.838	65432.47015
672.007	65366.29255
672.175	65382.25303
672.344	65393.65858
672.513	65252.53404
672.682	65427.90145
672.85	65343.50659
673.019	65311.63516
673.188	65286.61683
673.357	65341.22894
673.525	65432.47015
673.694	65432.47015
673.863	65382.25303
674.032	65343.50659
674.2	65409.63369
674.369	65409.63369
674.537	65352.6189
674.706	65448.46615
674.875	65400.50401
675.043	65379.97244
675.212	65366.29255
675.381	65366.29255
675.549	65421.04972
675.718	65439.32452
675.886	65391.37712
676.055	65462.18389
676.223	65434.75477
676.392	65370.85182
676.56	65384.53379
676.729	65395.94021
676.897	65457.6106
677.066	65421.04972
677.234	65418.76617
677.403	65521.7015
677.571	65425.61737
677.739	65416.48278
677.908	65439.32452
678.076	65391.37712
678.244	65405.0685
678.413	65455.32423
678.581	65386.81473
678.75	65441.60966
678.918	65446.18048
679.086	65430.18572
679.254	65523.99306
679.423	65334.39703
679.591	65430.18572
679.759	65425.61737
679.928	65453.03802
680.096	65405.0685
680.264	65439.32452
680.432	65400.50401
680.6	65427.90145
680.769	65379.97244
680.937	65480.48416
681.105	65379.97244
681.273	65377.69202
681.441	65432.47015
681.609	65325.29022
681.777	65432.47015
681.945	65398.22202
682.114	65455.32423
682.282	65407.351
682.45	65439.32452
682.618	65466.75789
682.786	65523.99306
682.954	65418.76617
683.122	65247.99254
683.29	65345.78441
683.458	65453.03802
683.626	65448.46615
683.794	65418.76617
683.962	65537.74618
684.13	65364.01318
684.298	65478.196
684.465	65411.91654
684.633	65466.75789
684.801	65480.48416
684.969	65455.32423
685.137	65375.41178
685.305	65475.90802
685.473	65416.48278
685.64	65475.90802
685.808	65553.79971
685.976	65348.0624
686.144	65503.37552
686.312	65334.39703
686.479	65496.50623
686.647	65487.34969
686.815	65446.18048
686.983	65464.47081
687.15	65427.90145
687.318	65462.18389
687.486	65430.18572
687.653	65416.48278
687.821	65469.04516
687.989	65418.76617
688.156	65510.24642
688.324	65485.061
688.492	65427.90145
688.659	65572.15748
688.827	65400.50401
688.994	65494.21683
689.162	65475.90802
689.329	65368.5721
689.497	65496.50623
689.665	65537.74618
689.832	65425.61737
690	65407.351
690.167	65505.66564
690.335	65466.75789
690.502	65489.63856
690.669	65425.61737
690.837	65469.04516
691.004	65377.69202
691.172	65375.41178
691.339	65359.45495
691.507	65528.57671
691.674	65494.21683
691.841	65503.37552
692.009	65542.332
692.176	65457.6106
692.343	65503.37552
692.511	65464.47081
692.678	65471.3326
692.845	65457.6106
693.013	65512.53707
693.18	65423.33346
693.347	65443.89498
693.514	65546.91854
693.682	65446.18048
693.849	65491.92761
694.016	65471.3326
694.183	65402.78616
694.35	65585.93345
694.518	65498.79582
694.685	65501.08558
694.852	65496.50623
695.019	65590.52691
695.186	65459.89716
695.353	65382.25303
695.52	65437.03956
695.687	65432.47015
695.855	65450.752
696.022	65448.46615
696.189	65494.21683
696.356	65512.53707
696.523	65562.97714
696.69	65379.97244
696.857	65590.52691
697.024	65418.76617
697.191	65510.24642
697.358	65421.04972
697.525	65402.78616
697.692	65453.03802
697.858	65528.57671
698.025	65437.03956
698.192	65441.60966
698.359	65542.332
698.526	65453.03802
698.693	65459.89716
698.86	65503.37552
699.027	65482.77249
699.193	65549.21208
699.36	65503.37552
699.527	65514.82791
699.694	65537.74618
699.861	65537.74618
700.027	65379.97244
700.194	65425.61737
700.361	65441.60966
700.528	65432.47015
700.694	65487.34969
700.861	65523.99306
701.028	65455.32423
701.195	65455.32423
701.361	65446.18048
701.528	65494.21683
701.694	65437.03956
701.861	65562.97714
702.028	65364.01318
702.194	65423.33346
702.361	65494.21683
702.528	65491.92761
702.694	65485.061
702.861	65338.95146
703.027	65453.03802
703.194	65510.24642
703.36	65455.32423
703.527	65553.79971
703.693	65400.50401
703.86	65389.09584
704.026	65478.196
704.193	65629.60088
704.359	65475.90802
704.526	65526.28479
