Data from Sun spf1000_Subt2__0__10-07-45-961.txt Node

Date: Tue Sep 23 10:07:45 EDT 2025
User: brett
Spectrometer: USB4F03499
Trigger mode: 4
Integration Time (sec): 1.000000E-1
Scans to average: 1
Electric dark correction enabled: true
Nonlinearity correction enabled: true
Boxcar width: 0
XAxis mode: Wavelengths
Number of Pixels in Spectrum: 3648
>>>>>Begin Spectral Data<<<<<
0	52.64327
0.225	52.64327
0.449	52.64327
0.674	-37.25629
0.898	-92.67806
1.123	-18.69765
1.347	-18.70936
1.572	15.66893
1.796	59.30427
2.021	40.8712
2.245	31.61501
2.469	-48.57773
2.694	-98.9043
2.918	38.58087
3.143	-30.22962
3.367	4.20006
3.591	24.84491
3.815	93.45572
4.04	777.67105
4.264	1124.82638
4.488	1055.7157
4.712	1042.95748
4.936	1019.73389
5.161	1006.06262
5.385	1060.32449
5.609	1056.30869
5.833	1012.23056
6.057	1066.42342
6.281	1111.78177
6.505	1059.72236
6.729	1067.45055
6.953	1165.78012
7.177	1124.28101
7.401	1045.14569
7.625	1086.58058
7.849	1034.78414
8.073	1159.62785
8.297	1102.61518
8.521	999.74136
8.744	1122.1336
8.968	1123.007
9.192	1098.52455
9.416	1148.12691
9.64	1133.21334
9.863	1093.23278
10.087	1192.65112
10.311	1055.13328
10.535	1001.63679
10.758	1053.66104
10.982	1080.92084
11.205	1023.52495
11.429	1082.98514
11.653	1149.00422
11.876	1074.38575
12.1	1254.34308
12.323	1131.79697
12.547	1214.16656
12.77	1135.34892
12.994	1106.11859
13.217	1163.4844
13.441	1094.90955
13.664	1259.19445
13.887	1203.53841
14.111	1208.99323
14.334	1050.7237
14.557	1078.17479
14.781	1177.08766
15.004	1083.38628
15.227	1128.3133
15.451	1190.85627
15.674	1070.03396
15.897	1125.90998
16.12	1248.63264
16.343	1169.38723
16.567	1210.67732
16.79	1161.19067
17.013	1128.34804
17.236	1224.87068
17.459	1254.99002
17.682	1076.33647
17.905	1149.00422
18.128	1195.28039
18.351	1217.74065
18.574	1152.30902
18.797	1192.235
19.02	1135.7343
19.243	1237.54159
19.466	1163.43304
19.689	1185.85059
19.911	1219.68858
20.134	1268.64189
20.357	1155.31666
20.58	1109.33476
20.803	1287.46995
21.025	1307.77957
21.248	1227.07851
21.471	1222.59749
21.694	1232.59552
21.916	1284.43565
22.139	1305.22751
22.362	1132.17915
22.584	1273.85166
22.807	1161.94697
23.029	1159.89779
23.252	1183.79401
23.475	1522.7887
23.697	1121.10749
23.92	1247.5473
24.142	1267.86904
24.365	1152.62739
24.587	1241.75851
24.809	1228.35302
25.032	1153.48655
25.254	1169.49492
25.477	1227.67442
25.699	1308.22685
25.921	1157.84813
26.144	1160.74472
26.366	1379.07511
26.588	1298.17486
26.81	1336.47742
27.033	1306.47243
27.255	1239.04817
27.477	1374.04932
27.699	1409.58499
27.921	1383.78193
28.144	1177.57593
28.366	1377.32597
28.588	1369.58148
28.81	1505.09025
29.032	1362.59423
29.254	1424.95811
29.476	1447.83595
29.698	1449.1034
29.92	1523.43477
30.142	1601.39128
30.364	1502.13531
30.586	1578.06594
30.808	1558.06276
31.029	1705.18551
31.251	1721.73214
31.473	1705.95164
31.695	1796.58207
31.917	1621.74819
32.139	1812.45474
32.36	1725.71634
32.582	1884.63864
32.804	1981.84323
33.026	1978.11995
33.247	1957.67126
33.469	2086.37527
33.691	2143.63927
33.912	2196.552
34.134	2251.74717
34.355	2212.8386
34.577	2430.80797
34.798	2251.96278
35.02	2464.27859
35.242	2371.2423
35.463	2667.46138
35.684	2708.4951
35.906	2815.43182
36.127	2899.72685
36.349	2865.48532
36.57	3111.46291
36.792	3302.56084
37.013	3300.45078
37.234	3419.71565
37.456	3411.17598
37.677	3837.33024
37.898	3880.17053
38.119	3892.96677
38.341	4111.17322
38.562	4346.92073
38.783	4529.05846
39.004	4458.2594
39.225	4666.39964
39.447	4845.4242
39.668	5084.14839
39.889	5240.82236
40.11	5395.53762
40.331	5668.02697
40.552	5818.23383
40.773	6073.47442
40.994	6091.77438
41.215	6482.22725
41.436	6695.48533
41.657	6859.46641
41.878	7244.2826
42.099	7451.98071
42.32	7923.24059
42.54	7928.68389
42.761	8501.96144
42.982	8619.14478
43.203	8917.7485
43.424	9319.93602
43.645	9246.61704
43.865	9712.60783
44.086	9929.82725
44.307	10411.07802
44.527	10645.16964
44.748	11087.16719
44.969	11527.62227
45.189	11440.60387
45.41	11663.22784
45.631	12488.25685
45.851	12362.93523
46.072	12579.55671
46.292	12722.40272
46.513	12926.49396
46.733	14063.35071
46.954	14148.86201
47.174	14721.90439
47.395	14675.64717
47.615	15363.3674
47.836	15690.27123
48.056	16024.64345
48.276	15641.113
48.497	15906.52286
48.717	16514.39991
48.937	16598.8124
49.158	16961.23794
49.378	16883.98271
49.598	17053.26149
49.818	17634.98882
50.038	17323.28907
50.259	17747.25795
50.479	17974.63648
50.699	18404.53816
50.919	18602.88265
51.139	18623.109
51.359	18541.02448
51.579	19028.25675
51.799	18439.38553
52.02	18683.35243
52.24	18577.67553
52.46	18535.72904
52.68	18079.06071
52.899	16904.98833
53.119	17167.27444
53.339	17721.43411
53.559	16740.72921
53.779	16413.52745
53.999	16616.38011
54.219	16268.88319
54.439	16136.5051
54.658	15727.82814
54.878	15562.35601
55.098	15154.42142
55.318	14197.38928
55.538	13877.13953
55.757	13354.35055
55.977	12674.03573
56.197	12254.30329
56.416	11455.09929
56.636	11160.71939
56.855	11111.14126
57.075	10444.25257
57.295	9508.925
57.514	9679.26517
57.734	9318.00197
57.953	8730.98083
58.173	8283.68646
58.392	7930.2616
58.612	7305.64919
58.831	6967.30753
59.051	6050.26973
59.27	5906.31889
59.489	5417.40355
59.709	5009.50895
59.928	4453.23982
60.147	4160.74595
60.367	3743.16191
60.586	3442.72725
60.805	3188.14854
61.024	3066.12403
61.244	3055.3091
61.463	2776.16602
61.682	2780.92648
61.901	2598.88128
62.12	2765.015
62.34	2657.93511
62.559	2658.2506
62.778	2489.87793
62.997	2616.94943
63.216	2585.70985
63.435	2533.8481
63.654	2530.24987
63.873	2578.31002
64.092	2575.24303
64.311	2562.71296
64.53	2614.45183
64.749	2423.03905
64.968	2606.37371
65.187	2732.6829
65.405	2692.71031
65.624	2766.99511
65.843	2594.91773
66.062	2661.73053
66.281	2603.74651
66.499	2772.40453
66.718	2786.00699
66.937	2807.77736
67.156	2768.47589
67.374	2918.07881
67.593	2767.96719
67.812	2903.13605
68.03	3020.71838
68.249	2945.80048
68.467	3013.62092
68.686	3029.81753
68.905	2916.60991
69.123	3124.64441
69.342	2996.18809
69.56	2798.61163
69.779	3078.30206
69.997	3053.8016
70.216	3114.109
70.434	3091.00873
70.652	3122.58645
70.871	3187.4317
71.089	3240.31652
71.307	3146.27497
71.526	3156.05791
71.744	3181.66812
71.962	3375.37814
72.181	3236.45492
72.399	3254.92154
72.617	3128.92076
72.835	3309.26572
73.054	3255.65258
73.272	3426.73376
73.49	3457.15123
73.708	3520.49747
73.926	3498.67544
74.144	3475.13209
74.362	3318.61001
74.58	3504.58964
74.798	3439.17732
75.016	3564.00439
75.234	3516.25179
75.452	3472.09135
75.67	3532.12086
75.888	3609.68883
76.106	3649.60675
76.324	3872.65967
76.542	3665.54031
76.76	3664.93274
76.978	3709.94065
77.196	3628.78389
77.413	3767.12714
77.631	3765.16091
77.849	3738.87226
78.067	3659.91925
78.284	3816.74086
78.502	3907.48363
78.72	3878.21639
78.938	3935.41565
79.155	3684.54099
79.373	3862.76868
79.59	3990.17711
79.808	4189.08112
80.026	4264.27403
80.243	4183.68409
80.461	3992.49161
80.678	4251.14963
80.896	4075.55605
81.113	4171.97478
81.331	4108.26379
81.548	4058.65017
81.766	4322.65184
81.983	4474.19445
82.2	4373.1508
82.418	4478.11701
82.635	4494.16983
82.852	4367.11926
83.07	4476.15894
83.287	4611.95182
83.504	4567.21679
83.722	4193.17857
83.939	4423.64789
84.156	4462.29611
84.373	4557.73838
84.591	4472.88743
84.808	4602.11362
85.025	4532.11019
85.242	4793.72562
85.459	4589.02634
85.676	4770.10702
85.893	4689.8204
86.11	4615.2751
86.327	5104.70422
86.544	4773.78801
86.761	4877.95899
86.978	4908.25296
87.195	5107.46119
87.412	5302.057
87.629	5401.06747
87.846	5706.61338
88.063	5449.746
88.28	5595.24816
88.497	5794.88595
88.713	6053.70453
88.93	5939.98626
89.147	6084.86731
89.364	6327.17526
89.58	6519.64015
89.797	6469.75528
90.014	6473.06914
90.231	6674.73353
90.447	6642.80507
90.664	6426.99488
90.881	6950.60107
91.097	6847.96334
91.314	7179.53399
91.53	7626.18578
91.747	8023.26327
91.963	8103.66312
92.18	8879.37351
92.396	9212.1589
92.613	9156.06231
92.829	9575.31043
93.046	10985.57358
93.262	10867.61511
93.479	10977.29234
93.695	11173.50596
93.911	11983.52231
94.128	12112.60767
94.344	12414.47553
94.56	13143.00973
94.777	12906.71988
94.993	13291.55994
95.209	14532.71544
95.426	14466.73948
95.642	15356.41001
95.858	16061.86212
96.074	17573.20629
96.29	18256.31496
96.506	20164.84499
96.723	22053.70041
96.939	23524.87431
97.155	24050.83403
97.371	23719.41706
97.587	24158.70473
97.803	26505.4581
98.019	28294.20594
98.235	29162.96716
98.451	29613.56504
98.667	28930.32937
98.883	28988.1921
99.099	31605.19985
99.315	32610.26648
99.53	33015.16358
99.746	32122.51042
99.962	31069.5996
100.178	33799.8993
100.394	35630.03241
100.61	37025.14239
100.825	36432.96614
101.041	38037.41643
101.257	37361.99687
101.473	38968.11382
101.688	39851.99135
101.904	41251.58669
102.12	42695.47163
102.335	45008.42214
102.551	44850.72503
102.766	49464.93246
102.982	51024.62342
103.198	53342.58171
103.413	54241.50067
103.629	56009.72651
103.844	58585.5807
104.06	59228.90268
104.275	57949.72533
104.49	58635.61802
104.706	62558.7538
104.921	63411.28295
105.137	62127.48432
105.352	58980.81285
105.567	59101.25596
105.783	60932.74856
105.998	59731.28014
106.213	63614.90412
106.429	65597.48014
106.644	65581.41009
106.859	65540.12794
107.074	65414.34715
107.29	65599.77659
107.505	65565.34894
107.72	65494.3273
107.935	65498.90414
108.15	65530.96207
108.365	65611.2616
108.58	65508.05997
108.795	65501.19283
109.01	65508.05997
109.226	65631.94616
109.441	65393.81558
109.656	65611.2616
109.871	65444.02886
110.085	65512.63896
110.3	65542.41985
110.515	65620.4529
110.73	65457.73812
110.945	65569.93693
111.16	65512.63896
111.375	65517.21866
111.59	65565.34894
111.804	65535.54464
112.019	65537.8362
112.234	65574.52565
112.449	65512.63896
112.663	65551.58932
112.878	65574.52565
113.093	65553.88214
113.308	65466.88116
113.522	65551.58932
113.737	65673.3601
113.951	65521.79908
114.166	65553.88214
114.381	65542.41985
114.595	65565.34894
114.81	65535.54464
115.024	65549.29668
115.239	65521.79908
115.453	65583.70526
115.668	65567.64285
115.882	65514.92872
116.097	65567.64285
116.311	65650.34495
116.525	65542.41985
116.74	65657.24755
116.954	65505.77075
117.169	65553.88214
117.383	65535.54464
117.597	65492.03914
117.811	65551.58932
118.026	65466.88116
118.24	65503.4817
118.454	65556.17514
118.668	65558.46832
118.883	65558.46832
119.097	65540.12794
119.311	65540.12794
119.525	65542.41985
119.739	65547.00423
119.953	65567.64285
120.167	65425.75968
120.381	65576.82028
120.595	65542.41985
120.809	65583.70526
121.023	65528.67105
121.237	65567.64285
121.451	65576.82028
121.665	65572.2312
121.879	65540.12794
122.093	65476.02704
122.307	65648.04446
122.521	65588.29616
122.735	65476.02704
122.949	65572.2312
123.163	65627.3483
123.376	65510.34938
123.59	65489.75116
123.804	65547.00423
124.018	65583.70526
124.231	65595.18387
124.445	65618.1548
124.659	65473.7403
124.872	65455.4528
125.086	65551.58932
125.3	65547.00423
125.513	65528.67105
125.727	65583.70526
125.94	65530.96207
126.154	65551.58932
126.368	65599.77659
126.581	65574.52565
126.795	65583.70526
127.008	65579.11509
127.222	65611.2616
127.435	65599.77659
127.648	65597.48014
127.862	65526.38022
128.075	65590.59188
128.289	65508.05997
128.502	65602.07323
128.715	65537.8362
128.929	65652.64563
129.142	65579.11509
129.355	65549.29668
129.568	65487.46337
129.782	65526.38022
129.995	65471.45375
130.208	65572.2312
130.421	65592.88779
130.634	65586.00062
130.848	65508.05997
131.061	65471.45375
131.274	65512.63896
131.487	65611.2616
131.7	65583.70526
131.913	65510.34938
132.126	65556.17514
132.339	65460.02362
132.552	65371.01923
132.765	65478.31395
132.978	65556.17514
133.191	65579.11509
133.404	65514.92872
133.617	65574.52565
133.83	65526.38022
134.043	65604.37005
134.255	65629.64714
134.468	65528.67105
134.681	65625.04965
134.894	65666.45361
135.107	65595.18387
135.319	65517.21866
135.532	65544.71195
135.745	65510.34938
135.958	65563.05522
136.17	65636.54475
136.383	65540.12794
136.596	65588.29616
136.808	65560.76168
137.021	65498.90414
137.233	65590.59188
137.446	65533.25327
137.659	65572.2312
137.871	65423.47683
138.084	65563.05522
138.296	65524.08956
138.509	65558.46832
138.721	65592.88779
138.934	65540.12794
139.146	65526.38022
139.358	65586.00062
139.571	65464.59514
139.783	65469.16737
139.996	65544.71195
140.208	65489.75116
140.42	65496.61563
140.632	65524.08956
140.845	65576.82028
141.057	65636.54475
141.269	65583.70526
141.481	65558.46832
141.694	65604.37005
141.906	65537.8362
142.118	65654.9465
142.33	65530.96207
142.542	65611.2616
142.754	65519.50878
142.967	65643.44402
143.179	65597.48014
143.391	65485.17574
143.603	65576.82028
143.815	65473.7403
144.027	65553.88214
144.239	65446.31329
144.451	65544.71195
144.663	65556.17514
144.875	65480.60103
145.086	65448.59791
145.298	65501.19283
145.51	65579.11509
145.722	65482.8883
145.934	65572.2312
146.146	65576.82028
146.358	65560.76168
146.569	65611.2616
146.781	65526.38022
146.993	65608.96423
147.205	65462.30929
147.416	65563.05522
147.628	65553.88214
147.84	65512.63896
148.051	65560.76168
148.263	65526.38022
148.475	65599.77659
148.686	65565.34894
148.898	65489.75116
149.109	65473.7403
149.321	65602.07323
149.532	65480.60103
149.744	65537.8362
149.955	65514.92872
150.167	65569.93693
150.378	65556.17514
150.59	65586.00062
150.801	65625.04965
151.013	65611.2616
151.224	65473.7403
151.435	65560.76168
151.647	65473.7403
151.858	65528.67105
152.069	65560.76168
152.281	65563.05522
152.492	65533.25327
152.703	65567.64285
152.914	65432.60931
153.126	65528.67105
153.337	65533.25327
153.548	65629.64714
153.759	65524.08956
153.97	65608.96423
154.181	65592.88779
154.392	65503.4817
154.604	65620.4529
154.815	65583.70526
155.026	65517.21866
155.237	65560.76168
155.448	65453.16766
155.659	65535.54464
155.87	65542.41985
156.081	65521.79908
156.292	65590.59188
156.502	65622.75118
156.713	65519.50878
156.924	65496.61563
157.135	65540.12794
157.346	65556.17514
157.557	65519.50878
157.768	65586.00062
157.978	65627.3483
158.189	65530.96207
158.4	65592.88779
158.611	65530.96207
158.821	65480.60103
159.032	65569.93693
159.243	65501.19283
159.453	65549.29668
159.664	65549.29668
159.875	65510.34938
160.085	65586.00062
160.296	65510.34938
160.507	65569.93693
160.717	65595.18387
160.928	65508.05997
161.138	65712.5286
161.349	65567.64285
161.559	65634.24536
161.77	65565.34894
161.98	65588.29616
162.19	65514.92872
162.401	65569.93693
162.611	65503.4817
162.822	65576.82028
163.032	65569.93693
163.242	65583.70526
163.453	65503.4817
163.663	65606.66705
163.873	65530.96207
164.084	65592.88779
164.294	65604.37005
164.504	65553.88214
164.714	65535.54464
164.924	65537.8362
165.135	65588.29616
165.345	65508.05997
165.555	65547.00423
165.765	65494.3273
165.975	65503.4817
166.185	65551.58932
166.395	65579.11509
166.605	65620.4529
166.815	65608.96423
167.025	65567.64285
167.235	65469.16737
167.445	65666.45361
167.655	65530.96207
167.865	65560.76168
168.075	65544.71195
168.285	65560.76168
168.495	65542.41985
168.705	65478.31395
168.915	65453.16766
169.124	65517.21866
169.334	65519.50878
169.544	65524.08956
169.754	65560.76168
169.964	65514.92872
170.173	65489.75116
170.383	65535.54464
170.593	65542.41985
170.802	65498.90414
171.012	65602.07323
171.222	65565.34894
171.431	65606.66705
171.641	65572.2312
171.851	65627.3483
172.06	65586.00062
172.27	65588.29616
172.479	65521.79908
172.689	65583.70526
172.898	65530.96207
173.108	65574.52565
173.317	65508.05997
173.527	65613.55915
173.736	65618.1548
173.945	65544.71195
174.155	65505.77075
174.364	65508.05997
174.574	65544.71195
174.783	65556.17514
174.992	65494.3273
175.202	65553.88214
175.411	65496.61563
175.62	65583.70526
175.829	65597.48014
176.039	65533.25327
176.248	65503.4817
176.457	65556.17514
176.666	65471.45375
176.875	65588.29616
177.084	65517.21866
177.294	65595.18387
177.503	65608.96423
177.712	65466.88116
177.921	65590.59188
178.13	65558.46832
178.339	65645.74415
178.548	65579.11509
178.757	65547.00423
178.966	65508.05997
179.175	65521.79908
179.384	65565.34894
179.593	65542.41985
179.802	65620.4529
180.011	65547.00423
180.219	65567.64285
180.428	65537.8362
180.637	65537.8362
180.846	65508.05997
181.055	65540.12794
181.263	65565.34894
181.472	65462.30929
181.681	65595.18387
181.89	65530.96207
182.098	65464.59514
182.307	65572.2312
182.516	65533.25327
182.724	65549.29668
182.933	65512.63896
183.142	65636.54475
183.35	65533.25327
183.559	65540.12794
183.767	65556.17514
183.976	65586.00062
184.184	65599.77659
184.393	65526.38022
184.601	65586.00062
184.81	65466.88116
185.018	65590.59188
185.227	65528.67105
185.435	65608.96423
185.644	65512.63896
185.852	65654.9465
186.06	65510.34938
186.269	65510.34938
186.477	65505.77075
186.685	65553.88214
186.894	65464.59514
187.102	65549.29668
187.31	65480.60103
187.518	65553.88214
187.727	65638.84432
187.935	65615.85688
188.143	65556.17514
188.351	65524.08956
188.559	65615.85688
188.768	65478.31395
188.976	65498.90414
189.184	65514.92872
189.392	65512.63896
189.6	65521.79908
189.808	65441.74459
190.016	65583.70526
190.224	65572.2312
190.432	65542.41985
190.64	65547.00423
190.848	65537.8362
191.056	65489.75116
191.264	65528.67105
191.472	65553.88214
191.679	65569.93693
191.887	65563.05522
192.095	65645.74415
192.303	65526.38022
192.511	65576.82028
192.719	65652.64563
192.926	65496.61563
193.134	65652.64563
193.342	65581.41009
193.55	65560.76168
193.757	65553.88214
193.965	65530.96207
194.173	65514.92872
194.38	65620.4529
194.588	65595.18387
194.796	65574.52565
195.003	65498.90414
195.211	65595.18387
195.418	65576.82028
195.626	65643.44402
195.833	65537.8362
196.041	65494.3273
196.248	65553.88214
196.456	65496.61563
196.663	65453.16766
196.871	65583.70526
197.078	65535.54464
197.285	65560.76168
197.493	65535.54464
197.7	65416.6293
197.908	65528.67105
198.115	65569.93693
198.322	65540.12794
198.529	65611.2616
198.737	65629.64714
198.944	65535.54464
199.151	65627.3483
199.358	65592.88779
199.566	65671.05775
199.773	65462.30929
199.98	65558.46832
200.187	65588.29616
200.394	65551.58932
200.601	65430.32592
200.809	65641.14408
201.016	65528.67105
201.223	65521.79908
201.43	65636.54475
201.637	65579.11509
201.844	65583.70526
202.051	65657.24755
202.258	65533.25327
202.465	65574.52565
202.672	65645.74415
202.878	65551.58932
203.085	65579.11509
203.292	65533.25327
203.499	65503.4817
203.706	65551.58932
203.913	65549.29668
204.12	65611.2616
204.326	65592.88779
204.533	65604.37005
204.74	65494.3273
204.947	65542.41985
205.153	65553.88214
205.36	65537.8362
205.567	65643.44402
205.773	65636.54475
205.98	65514.92872
206.187	65558.46832
206.393	65549.29668
206.6	65572.2312
206.806	65613.55915
207.013	65487.46337
207.22	65494.3273
207.426	65604.37005
207.633	65544.71195
207.839	65478.31395
208.046	65510.34938
208.252	65512.63896
208.458	65508.05997
208.665	65535.54464
208.871	65574.52565
209.078	65466.88116
209.284	65558.46832
209.49	65569.93693
209.697	65572.2312
209.903	65611.2616
210.109	65576.82028
210.316	65510.34938
210.522	65590.59188
210.728	65528.67105
210.934	65332.30506
211.14	65572.2312
211.347	65631.94616
211.553	65517.21866
211.759	65540.12794
211.965	65494.3273
212.171	65517.21866
212.377	65482.8883
212.583	65544.71195
212.789	65581.41009
212.996	65530.96207
213.202	65496.61563
213.408	65537.8362
213.614	65544.71195
213.82	65592.88779
214.025	65576.82028
214.231	65622.75118
214.437	65581.41009
214.643	65478.31395
214.849	65542.41985
215.055	65549.29668
215.261	65606.66705
215.467	65540.12794
215.672	65620.4529
215.878	65480.60103
216.084	65599.77659
216.29	65540.12794
216.496	65464.59514
216.701	65508.05997
216.907	65602.07323
217.113	65542.41985
217.318	65473.7403
217.524	65586.00062
217.73	65597.48014
217.935	65565.34894
218.141	65512.63896
218.346	65530.96207
218.552	65563.05522
218.758	65530.96207
218.963	65519.50878
219.169	65528.67105
219.374	65540.12794
219.58	65540.12794
219.785	65560.76168
219.991	65487.46337
220.196	65641.14408
220.401	65574.52565
220.607	65544.71195
220.812	65460.02362
221.017	65549.29668
221.223	65496.61563
221.428	65471.45375
221.633	65492.03914
221.839	65540.12794
222.044	65599.77659
222.249	65530.96207
222.454	65524.08956
222.66	65526.38022
222.865	65572.2312
223.07	65425.75968
223.275	65547.00423
223.48	65514.92872
223.686	65599.77659
223.891	65629.64714
224.096	65622.75118
224.301	65439.46051
224.506	65595.18387
224.711	65501.19283
224.916	65581.41009
225.121	65574.52565
225.326	65572.2312
225.531	65599.77659
225.736	65579.11509
225.941	65608.96423
226.146	65558.46832
226.351	65528.67105
226.555	65526.38022
226.76	65521.79908
226.965	65625.04965
227.17	65567.64285
227.375	65590.59188
227.58	65574.52565
227.784	65505.77075
227.989	65664.15182
228.194	65586.00062
228.399	65514.92872
228.603	65606.66705
228.808	65581.41009
229.013	65492.03914
229.217	65544.71195
229.422	65597.48014
229.627	65558.46832
229.831	65579.11509
230.036	65510.34938
230.24	65537.8362
230.445	65514.92872
230.649	65537.8362
230.854	65528.67105
231.058	65567.64285
231.263	65556.17514
231.467	65524.08956
231.672	65563.05522
231.876	65544.71195
232.081	65494.3273
232.285	65517.21866
232.489	65514.92872
232.694	65583.70526
232.898	65494.3273
233.102	65450.8827
233.307	65537.8362
233.511	65560.76168
233.715	65512.63896
233.919	65489.75116
234.124	65604.37005
234.328	65643.44402
234.532	65540.12794
234.736	65501.19283
234.94	65595.18387
235.145	65535.54464
235.349	65524.08956
235.553	65430.32592
235.757	65439.46051
235.961	65597.48014
236.165	65590.59188
236.369	65505.77075
236.573	65508.05997
236.777	65604.37005
236.981	65530.96207
237.185	65466.88116
237.389	65565.34894
237.593	65544.71195
237.797	65514.92872
238.001	65510.34938
238.205	65526.38022
238.409	65581.41009
238.612	65586.00062
238.816	65423.47683
239.02	65549.29668
239.224	65563.05522
239.428	65512.63896
239.631	65535.54464
239.835	65519.50878
240.039	65549.29668
240.243	65498.90414
240.446	65473.7403
240.65	65599.77659
240.854	65698.69826
241.057	65524.08956
241.261	65599.77659
241.464	65620.4529
241.668	65496.61563
241.872	65586.00062
242.075	65547.00423
242.279	65535.54464
242.482	65583.70526
242.686	65574.52565
242.889	65482.8883
243.093	65586.00062
243.296	65489.75116
243.499	65547.00423
243.703	65549.29668
243.906	65608.96423
244.11	65519.50878
244.313	65553.88214
244.516	65528.67105
244.72	65489.75116
244.923	65611.2616
245.126	65455.4528
245.33	65526.38022
245.533	65602.07323
245.736	65528.67105
245.939	65565.34894
246.142	65533.25327
246.346	65581.41009
246.549	65627.3483
246.752	65586.00062
246.955	65563.05522
247.158	65521.79908
247.361	65567.64285
247.564	65508.05997
247.767	65466.88116
247.971	65549.29668
248.174	65517.21866
248.377	65567.64285
248.58	65627.3483
248.783	65592.88779
248.985	65553.88214
249.188	65567.64285
249.391	65519.50878
249.594	65549.29668
249.797	65597.48014
250	65469.16737
250.203	65565.34894
250.406	65572.2312
250.609	65599.77659
250.811	65576.82028
251.014	65576.82028
251.217	65608.96423
251.42	65592.88779
251.622	65425.75968
251.825	65489.75116
252.028	65576.82028
252.231	65581.41009
252.433	65595.18387
252.636	65487.46337
252.838	65514.92872
253.041	65551.58932
253.244	65501.19283
253.446	65450.8827
253.649	65537.8362
253.851	65494.3273
254.054	65572.2312
254.256	65485.17574
254.459	65576.82028
254.661	65519.50878
254.864	65597.48014
255.066	65393.81558
255.269	65556.17514
255.471	65521.79908
255.673	65505.77075
255.876	65576.82028
256.078	65521.79908
256.281	65533.25327
256.483	65549.29668
256.685	65604.37005
256.887	65540.12794
257.09	65530.96207
257.292	65595.18387
257.494	65505.77075
257.696	65565.34894
257.899	65595.18387
258.101	65453.16766
258.303	65526.38022
258.505	65625.04965
258.707	65558.46832
258.909	65586.00062
259.111	65645.74415
259.314	65526.38022
259.516	65576.82028
259.718	65489.75116
259.92	65535.54464
260.122	65563.05522
260.324	65576.82028
260.526	65469.16737
260.728	65533.25327
260.93	65514.92872
261.131	65631.94616
261.333	65590.59188
261.535	65553.88214
261.737	65581.41009
261.939	65508.05997
262.141	65544.71195
262.343	65501.19283
262.544	65519.50878
262.746	65519.50878
262.948	65602.07323
263.15	65551.58932
263.352	65480.60103
263.553	65549.29668
263.755	65602.07323
263.957	65476.02704
264.158	65512.63896
264.36	65535.54464
264.562	65498.90414
264.763	65586.00062
264.965	65517.21866
265.166	65569.93693
265.368	65473.7403
265.569	65579.11509
265.771	65574.52565
265.972	65510.34938
266.174	65579.11509
266.375	65565.34894
266.577	65551.58932
266.778	65519.50878
266.98	65549.29668
267.181	65599.77659
267.383	65620.4529
267.584	65471.45375
267.785	65556.17514
267.987	65576.82028
268.188	65625.04965
268.389	65510.34938
268.591	65620.4529
268.792	65618.1548
268.993	65521.79908
269.194	65576.82028
269.396	65485.17574
269.597	65537.8362
269.798	65588.29616
269.999	65535.54464
270.2	65618.1548
270.401	65480.60103
270.603	65579.11509
270.804	65595.18387
271.005	65597.48014
271.206	65549.29668
271.407	65521.79908
271.608	65476.02704
271.809	65553.88214
272.01	65540.12794
272.211	65567.64285
272.412	65505.77075
272.613	65498.90414
272.814	65602.07323
273.015	65574.52565
273.216	65595.18387
273.416	65569.93693
273.617	65494.3273
273.818	65519.50878
274.019	65563.05522
274.22	65503.4817
274.421	65533.25327
274.621	65569.93693
274.822	65535.54464
275.023	65540.12794
275.224	65547.00423
275.424	65629.64714
275.625	65661.85021
275.826	65556.17514
276.026	65599.77659
276.227	65563.05522
276.428	65514.92872
276.628	65508.05997
276.829	65510.34938
277.029	65563.05522
277.23	65540.12794
277.43	65517.21866
277.631	65473.7403
277.831	65631.94616
278.032	65608.96423
278.232	65563.05522
278.433	65579.11509
278.633	65471.45375
278.834	65581.41009
279.034	65510.34938
279.234	65480.60103
279.435	65551.58932
279.635	65530.96207
279.835	65558.46832
280.036	65469.16737
280.236	65643.44402
280.436	65579.11509
280.637	65551.58932
280.837	65485.17574
281.037	65556.17514
281.237	65556.17514
281.438	65569.93693
281.638	65579.11509
281.838	65574.52565
282.038	65574.52565
282.238	65551.58932
282.438	65560.76168
282.638	65558.46832
282.838	65576.82028
283.038	65530.96207
283.239	65572.2312
283.439	65553.88214
283.639	65457.73812
283.839	65588.29616
284.039	65528.67105
284.238	65553.88214
284.438	65510.34938
284.638	65604.37005
284.838	65581.41009
285.038	65583.70526
285.238	65606.66705
285.438	65547.00423
285.638	65544.71195
285.838	65549.29668
286.037	65514.92872
286.237	65588.29616
286.437	65595.18387
286.637	65572.2312
286.836	65569.93693
287.036	65620.4529
287.236	65517.21866
287.436	65604.37005
287.635	65540.12794
287.835	65549.29668
288.034	65553.88214
288.234	65460.02362
288.434	65526.38022
288.633	65563.05522
288.833	65597.48014
289.032	65652.64563
289.232	65540.12794
289.431	65540.12794
289.631	65576.82028
289.83	65471.45375
290.03	65599.77659
290.229	65588.29616
290.429	65659.54879
290.628	65489.75116
290.828	65622.75118
291.027	65645.74415
291.226	65572.2312
291.426	65533.25327
291.625	65416.6293
291.824	65567.64285
292.024	65567.64285
292.223	65599.77659
292.422	65558.46832
292.621	65576.82028
292.821	65524.08956
293.02	65563.05522
293.219	65492.03914
293.418	65597.48014
293.617	65503.4817
293.817	65590.59188
294.016	65462.30929
294.215	65494.3273
294.414	65636.54475
294.613	65572.2312
294.812	65558.46832
295.011	65586.00062
295.21	65535.54464
295.409	65625.04965
295.608	65671.05775
295.807	65590.59188
296.006	65526.38022
296.205	65560.76168
296.404	65425.75968
296.603	65579.11509
296.802	65464.59514
297.001	65588.29616
297.2	65586.00062
297.398	65604.37005
297.597	65492.03914
297.796	65629.64714
297.995	65613.55915
298.194	65510.34938
298.392	65574.52565
298.591	65567.64285
298.79	65611.2616
298.988	65579.11509
299.187	65574.52565
299.386	65544.71195
299.585	65563.05522
299.783	65547.00423
299.982	65482.8883
300.18	65581.41009
300.379	65569.93693
300.578	65572.2312
300.776	65629.64714
300.975	65535.54464
301.173	65478.31395
301.372	65563.05522
301.57	65581.41009
301.769	65586.00062
301.967	65514.92872
302.166	65563.05522
302.364	65606.66705
302.562	65558.46832
302.761	65512.63896
302.959	65567.64285
303.157	65521.79908
303.356	65595.18387
303.554	65503.4817
303.752	65563.05522
303.951	65528.67105
304.149	65441.74459
304.347	65535.54464
304.546	65505.77075
304.744	65542.41985
304.942	65526.38022
305.14	65595.18387
305.338	65620.4529
305.536	65572.2312
305.735	65574.52565
305.933	65581.41009
306.131	65590.59188
306.329	65503.4817
306.527	65620.4529
306.725	65567.64285
306.923	65514.92872
307.121	65457.73812
307.319	65592.88779
307.517	65595.18387
307.715	65544.71195
307.913	65434.89287
308.111	65521.79908
308.309	65537.8362
308.507	65569.93693
308.705	65558.46832
308.903	65613.55915
309.1	65494.3273
309.298	65498.90414
309.496	65540.12794
309.694	65576.82028
309.892	65602.07323
310.089	65608.96423
310.287	65558.46832
310.485	65588.29616
310.683	65544.71195
310.88	65563.05522
311.078	65569.93693
311.276	65505.77075
311.473	65556.17514
311.671	65547.00423
311.869	65503.4817
312.066	65553.88214
312.264	65551.58932
312.461	65473.7403
312.659	65494.3273
312.856	65505.77075
313.054	65583.70526
313.251	65579.11509
313.449	65492.03914
313.646	65560.76168
313.844	65604.37005
314.041	65560.76168
314.239	65489.75116
314.436	65480.60103
314.634	65448.59791
314.831	65505.77075
315.028	65627.3483
315.226	65560.76168
315.423	65489.75116
315.62	65595.18387
315.817	65542.41985
316.015	65434.89287
316.212	65590.59188
316.409	65510.34938
316.606	65526.38022
316.804	65572.2312
317.001	65606.66705
317.198	65508.05997
317.395	65508.05997
317.592	65508.05997
317.789	65558.46832
317.987	65535.54464
318.184	65588.29616
318.381	65625.04965
318.578	65510.34938
318.775	65620.4529
318.972	65615.85688
319.169	65613.55915
319.366	65505.77075
319.563	65542.41985
319.76	65581.41009
319.957	65572.2312
320.154	65586.00062
320.351	65503.4817
320.547	65526.38022
320.744	65565.34894
320.941	65444.02886
321.138	65558.46832
321.335	65544.71195
321.532	65592.88779
321.728	65512.63896
321.925	65611.2616
322.122	65432.60931
322.319	65659.54879
322.515	65503.4817
322.712	65517.21866
322.909	65629.64714
323.105	65634.24536
323.302	65494.3273
323.499	65473.7403
323.695	65521.79908
323.892	65551.58932
324.089	65508.05997
324.285	65574.52565
324.482	65583.70526
324.678	65634.24536
324.875	65588.29616
325.071	65537.8362
325.268	65542.41985
325.464	65567.64285
325.661	65547.00423
325.857	65560.76168
326.054	65595.18387
326.25	65521.79908
326.446	65519.50878
326.643	65540.12794
326.839	65563.05522
327.035	65643.44402
327.232	65494.3273
327.428	65638.84432
327.624	65631.94616
327.821	65549.29668
328.017	65608.96423
328.213	65586.00062
328.409	65549.29668
328.606	65528.67105
328.802	65530.96207
328.998	65565.34894
329.194	65627.3483
329.39	65505.77075
329.586	65549.29668
329.783	65510.34938
329.979	65537.8362
330.175	65567.64285
330.371	65549.29668
330.567	65565.34894
330.763	65537.8362
330.959	65602.07323
331.155	65574.52565
331.351	65583.70526
331.547	65519.50878
331.743	65659.54879
331.939	65556.17514
332.135	65583.70526
332.33	65482.8883
332.526	65547.00423
332.722	65530.96207
332.918	65498.90414
333.114	65602.07323
333.31	65446.31329
333.506	65473.7403
333.701	65551.58932
333.897	65661.85021
334.093	65508.05997
334.289	65613.55915
334.484	65448.59791
334.68	65464.59514
334.876	65492.03914
335.071	65558.46832
335.267	65487.46337
335.463	65569.93693
335.658	65567.64285
335.854	65677.96536
336.049	65553.88214
336.245	65583.70526
336.441	65579.11509
336.636	65530.96207
336.832	65512.63896
337.027	65430.32592
337.223	65618.1548
337.418	65476.02704
337.613	65608.96423
337.809	65526.38022
338.004	65602.07323
338.2	65544.71195
338.395	65595.18387
338.591	65501.19283
338.786	65608.96423
338.981	65604.37005
339.177	65613.55915
339.372	65540.12794
339.567	65480.60103
339.762	65512.63896
339.958	65680.26827
340.153	65638.84432
340.348	65010.81662
340.543	65560.76168
340.739	65604.37005
340.934	65574.52565
341.129	65521.79908
341.324	65521.79908
341.519	65629.64714
341.714	65694.08964
341.909	65608.96423
342.104	65549.29668
342.299	65558.46832
342.495	65581.41009
342.69	65599.77659
342.885	65586.00062
343.08	65300.45997
343.275	65466.88116
343.469	65569.93693
343.664	65514.92872
343.859	65558.46832
344.054	65620.4529
344.249	65602.07323
344.444	65547.00423
344.639	65581.41009
344.834	65606.66705
345.029	65553.88214
345.223	65528.67105
345.418	65608.96423
345.613	65540.12794
345.808	65558.46832
346.003	65563.05522
346.197	65558.46832
346.392	65542.41985
346.587	65446.31329
346.781	65572.2312
346.976	65530.96207
347.171	65476.02704
347.365	65581.41009
347.56	65579.11509
347.755	65501.19283
347.949	65576.82028
348.144	65606.66705
348.338	65544.71195
348.533	65540.12794
348.727	65590.59188
348.922	65508.05997
349.116	65622.75118
349.311	65551.58932
349.505	65622.75118
349.7	65606.66705
349.894	65595.18387
350.089	65530.96207
350.283	65565.34894
350.477	65549.29668
350.672	65567.64285
350.866	65489.75116
351.06	65544.71195
351.255	65549.29668
351.449	65553.88214
351.643	65553.88214
351.837	65510.34938
352.032	65650.34495
352.226	65599.77659
352.42	65604.37005
352.614	65487.46337
352.809	65590.59188
353.003	65547.00423
353.197	65533.25327
353.391	65569.93693
353.585	65535.54464
353.779	65631.94616
353.973	65487.46337
354.167	65524.08956
354.361	65611.2616
354.555	65498.90414
354.749	65567.64285
354.943	65590.59188
355.137	65526.38022
355.331	65574.52565
355.525	65588.29616
355.719	65526.38022
355.913	65565.34894
356.107	65537.8362
356.301	65567.64285
356.495	65563.05522
356.689	65553.88214
356.883	65526.38022
357.076	65622.75118
357.27	65492.03914
357.464	65588.29616
357.658	65489.75116
357.852	65560.76168
358.045	65528.67105
358.239	65602.07323
358.433	65576.82028
358.626	65588.29616
358.82	65560.76168
359.014	65540.12794
359.207	65549.29668
359.401	65641.14408
359.595	65528.67105
359.788	65581.41009
359.982	65553.88214
360.175	65519.50878
360.369	65576.82028
360.563	65549.29668
360.756	65560.76168
360.95	65537.8362
361.143	65648.04446
361.336	65698.69826
361.53	65604.37005
361.723	65590.59188
361.917	65533.25327
362.11	65592.88779
362.304	65567.64285
362.497	65558.46832
362.69	65432.60931
362.884	65542.41985
363.077	65581.41009
363.27	65574.52565
363.464	65549.29668
363.657	65590.59188
363.85	65508.05997
364.043	65576.82028
364.237	65549.29668
364.43	65521.79908
364.623	65517.21866
364.816	65606.66705
365.009	65496.61563
365.202	65581.41009
365.396	65480.60103
365.589	65542.41985
365.782	65542.41985
365.975	65622.75118
366.168	65512.63896
366.361	65476.02704
366.554	65558.46832
366.747	65590.59188
366.94	65524.08956
367.133	65563.05522
367.326	65574.52565
367.519	65576.82028
367.712	65684.87465
367.905	65572.2312
368.098	65597.48014
368.291	65455.4528
368.484	65558.46832
368.676	65528.67105
368.869	65629.64714
369.062	65569.93693
369.255	65553.88214
369.448	65517.21866
369.64	65542.41985
369.833	65581.41009
370.026	65508.05997
370.219	65625.04965
370.411	65453.16766
370.604	65638.84432
370.797	65542.41985
370.989	65514.92872
371.182	65631.94616
371.375	65503.4817
371.567	65533.25327
371.76	65565.34894
371.952	65634.24536
372.145	65537.8362
372.338	65530.96207
372.53	65540.12794
372.723	65618.1548
372.915	65565.34894
373.108	65592.88779
373.3	65526.38022
373.493	65519.50878
373.685	65517.21866
373.877	65611.2616
374.07	65501.19283
374.262	65492.03914
374.455	65602.07323
374.647	65659.54879
374.839	65494.3273
375.032	65549.29668
375.224	65549.29668
375.416	65608.96423
375.609	65112.33929
375.801	65556.17514
375.993	65602.07323
376.185	65613.55915
376.378	65565.34894
376.57	65544.71195
376.762	65540.12794
376.954	65526.38022
377.146	65512.63896
377.338	65604.37005
377.53	65595.18387
377.723	65510.34938
377.915	65599.77659
378.107	65558.46832
378.299	65590.59188
378.491	65586.00062
378.683	65540.12794
378.875	65581.41009
379.067	65492.03914
379.259	65519.50878
379.451	65567.64285
379.643	65503.4817
379.835	65533.25327
380.027	65487.46337
380.219	65599.77659
380.41	65553.88214
380.602	65547.00423
380.794	65645.74415
380.986	65590.59188
381.178	65560.76168
381.37	65567.64285
381.561	65551.58932
381.753	65469.16737
381.945	65482.8883
382.137	65549.29668
382.328	65579.11509
382.52	65590.59188
382.712	65583.70526
382.903	65487.46337
383.095	65569.93693
383.287	65615.85688
383.478	65528.67105
383.67	65588.29616
383.862	65547.00423
384.053	65540.12794
384.245	65586.00062
384.436	65517.21866
384.628	65544.71195
384.819	65572.2312
385.011	65512.63896
385.202	65565.34894
385.394	65586.00062
385.585	65460.02362
385.777	65581.41009
385.968	65622.75118
386.159	65558.46832
386.351	65551.58932
386.542	65524.08956
386.734	65476.02704
386.925	65576.82028
387.116	65535.54464
387.308	65540.12794
387.499	65602.07323
387.69	65517.21866
387.881	65476.02704
388.073	65551.58932
388.264	65549.29668
388.455	65636.54475
388.646	65503.4817
388.837	65521.79908
389.029	65544.71195
389.22	65569.93693
389.411	65590.59188
389.602	65547.00423
389.793	65581.41009
389.984	65560.76168
390.175	65530.96207
390.366	65517.21866
390.557	65613.55915
390.748	65553.88214
390.939	65629.64714
391.13	65576.82028
391.321	65540.12794
391.512	65572.2312
391.703	65558.46832
391.894	65586.00062
392.085	65608.96423
392.276	65599.77659
392.467	65613.55915
392.658	65595.18387
392.849	65549.29668
393.039	65579.11509
393.23	65563.05522
393.421	65537.8362
393.612	65553.88214
393.803	65560.76168
393.993	65460.02362
394.184	65524.08956
394.375	65611.2616
394.566	65549.29668
394.756	65537.8362
394.947	65501.19283
395.138	65583.70526
395.328	65487.46337
395.519	65508.05997
395.709	65613.55915
395.9	65455.4528
396.091	65583.70526
396.281	65586.00062
396.472	65579.11509
396.662	65604.37005
396.853	65595.18387
397.043	65576.82028
397.234	65581.41009
397.424	65535.54464
397.615	65535.54464
397.805	65544.71195
397.996	65634.24536
398.186	65498.90414
398.376	65480.60103
398.567	65592.88779
398.757	65563.05522
398.947	65694.08964
399.138	65510.34938
399.328	65498.90414
399.518	65615.85688
399.709	65645.74415
399.899	65558.46832
400.089	65595.18387
400.279	65549.29668
400.47	65556.17514
400.66	65553.88214
400.85	65482.8883
401.04	65519.50878
401.23	65494.3273
401.421	65533.25327
401.611	65576.82028
401.801	65517.21866
401.991	65549.29668
402.181	65567.64285
402.371	65535.54464
402.561	65487.46337
402.751	65569.93693
402.941	65521.79908
403.131	65480.60103
403.321	65590.59188
403.511	65540.12794
403.701	65510.34938
403.891	65549.29668
404.081	65547.00423
404.271	65597.48014
404.461	65478.31395
404.651	65606.66705
404.84	65528.67105
405.03	65519.50878
405.22	65595.18387
405.41	65583.70526
405.6	65496.61563
405.789	65501.19283
405.979	65485.17574
406.169	65625.04965
406.359	65558.46832
406.548	65608.96423
406.738	65608.96423
406.928	65482.8883
407.118	65517.21866
407.307	65503.4817
407.497	65551.58932
407.686	65494.3273
407.876	65602.07323
408.066	65581.41009
408.255	65590.59188
408.445	65583.70526
408.634	65510.34938
408.824	65530.96207
409.013	65574.52565
409.203	65496.61563
409.392	65530.96207
409.582	65535.54464
409.771	65629.64714
409.961	65588.29616
410.15	65517.21866
410.34	65528.67105
410.529	65604.37005
410.718	65544.71195
410.908	65416.6293
411.097	65604.37005
411.286	65588.29616
411.476	65618.1548
411.665	65579.11509
411.854	65569.93693
412.044	65613.55915
412.233	65528.67105
412.422	65528.67105
412.611	65547.00423
412.8	65505.77075
412.99	65592.88779
413.179	65512.63896
413.368	65586.00062
413.557	65611.2616
413.746	65563.05522
413.935	65586.00062
414.124	65631.94616
414.313	65496.61563
414.503	65530.96207
414.692	65588.29616
414.881	65476.02704
415.07	65492.03914
415.259	65565.34894
415.448	65489.75116
415.637	65547.00423
415.826	65528.67105
416.015	65620.4529
416.203	65565.34894
416.392	65514.92872
416.581	65576.82028
416.77	65535.54464
416.959	65524.08956
417.148	65583.70526
417.337	65595.18387
417.525	65540.12794
417.714	65521.79908
417.903	65599.77659
418.092	65595.18387
418.281	65528.67105
418.469	65537.8362
418.658	65542.41985
418.847	65572.2312
419.035	65606.66705
419.224	65620.4529
419.413	65597.48014
419.601	65540.12794
419.79	65629.64714
419.979	65565.34894
420.167	65599.77659
420.356	65563.05522
420.544	65526.38022
420.733	65595.18387
420.921	65574.52565
421.11	65526.38022
421.299	65512.63896
421.487	65556.17514
421.675	65551.58932
421.864	65560.76168
422.052	65579.11509
422.241	65460.02362
422.429	65572.2312
422.618	65563.05522
422.806	65540.12794
422.994	65572.2312
423.183	65517.21866
423.371	65572.2312
423.559	65530.96207
423.748	65503.4817
423.936	65576.82028
424.124	65661.85021
424.312	65597.48014
424.501	65540.12794
424.689	65563.05522
424.877	65560.76168
425.065	65558.46832
425.254	65576.82028
425.442	65414.34715
425.63	65482.8883
425.818	65473.7403
426.006	65563.05522
426.194	65469.16737
426.382	65487.46337
426.57	65519.50878
426.758	65535.54464
426.946	65572.2312
427.134	65510.34938
427.323	65588.29616
427.51	65558.46832
427.698	65544.71195
427.886	65514.92872
428.074	65478.31395
428.262	65659.54879
428.45	65549.29668
428.638	65542.41985
428.826	65517.21866
429.014	65590.59188
429.202	65664.15182
429.39	65627.3483
429.577	65487.46337
429.765	65489.75116
429.953	65485.17574
430.141	65560.76168
430.329	65517.21866
430.516	65586.00062
430.704	65425.75968
430.892	65574.52565
431.079	65648.04446
431.267	65489.75116
431.455	65625.04965
431.643	65478.31395
431.83	65526.38022
432.018	65514.92872
432.205	65574.52565
432.393	65622.75118
432.581	65558.46832
432.768	65489.75116
432.956	65494.3273
433.143	65535.54464
433.331	65508.05997
433.518	65574.52565
433.706	65556.17514
433.893	65448.59791
434.081	65581.41009
434.268	65464.59514
434.456	65597.48014
434.643	65586.00062
434.83	65498.90414
435.018	65498.90414
435.205	65581.41009
435.392	65581.41009
435.58	65654.9465
435.767	65496.61563
435.954	65551.58932
436.142	65489.75116
436.329	65590.59188
436.516	65572.2312
436.703	65514.92872
436.891	65476.02704
437.078	65501.19283
437.265	65496.61563
437.452	65505.77075
437.639	65540.12794
437.827	65521.79908
438.014	65503.4817
438.201	65556.17514
438.388	65498.90414
438.575	65549.29668
438.762	65551.58932
438.949	65565.34894
439.136	65510.34938
439.323	65457.73812
439.51	65558.46832
439.697	65480.60103
439.884	65485.17574
440.071	65510.34938
440.258	65482.8883
440.445	65494.3273
440.632	65300.45997
440.819	65503.4817
441.006	65432.60931
441.193	65517.21866
441.38	65480.60103
441.566	65542.41985
441.753	65551.58932
441.94	65485.17574
442.127	65549.29668
442.314	65469.16737
442.5	65446.31329
442.687	65462.30929
442.874	65489.75116
443.061	65496.61563
443.247	65480.60103
443.434	65391.53516
443.621	65558.46832
443.807	65503.4817
443.994	65380.13569
444.181	65517.21866
444.367	65547.00423
444.554	65462.30929
444.74	65487.46337
444.927	65517.21866
445.114	65460.02362
445.3	65334.58099
445.487	65412.06516
445.673	65428.04272
445.86	65457.73812
446.046	65482.8883
446.233	65446.31329
446.419	65478.31395
446.605	65373.29809
446.792	65377.85632
446.978	65517.21866
447.165	65453.16766
447.351	65478.31395
447.537	65492.03914
447.724	65501.19283
447.91	65386.97485
448.096	65412.06516
448.283	65348.24017
448.469	65450.8827
448.655	65434.89287
448.841	65382.41524
449.028	65421.19414
449.214	65407.50172
449.4	65384.69496
449.586	65405.22026
449.773	65377.85632
449.959	65405.22026
450.145	65291.36751
450.331	65421.19414
450.517	65450.8827
450.703	65330.0293
450.889	65423.47683
451.075	65368.74055
451.261	65293.64037
451.447	65286.82229
451.633	65366.46204
451.819	65355.07208
452.005	65284.54993
452.191	65352.7946
452.377	65334.58099
452.563	65311.82938
452.749	65316.37834
452.935	65291.36751
453.121	65252.7547
453.307	65282.27775
453.493	65225.52784
453.679	65266.37718
453.865	65236.86943
454.05	65209.65661
454.236	65255.02469
454.422	65320.92798
454.608	65277.73389
454.794	65298.1866
454.979	65307.28111
455.165	65275.46221
455.351	65216.45756
455.537	65220.99237
455.722	65146.25276
455.908	65227.79582
456.094	65164.35497
456.279	65143.99072
456.465	65110.07969
456.65	65205.12346
456.836	65173.41002
457.022	65162.09162
457.207	65177.93853
457.393	65130.42191
457.578	65182.4677
457.764	65085.2348
457.949	65157.56541
458.135	65096.52551
458.32	65232.33229
458.506	65184.73253
458.691	65148.51496
458.877	65128.16102
459.062	65193.79351
459.248	65200.59099
459.433	65076.20514
459.618	65053.64221
459.804	65150.77733
459.989	65058.15352
460.174	65053.64221
460.36	65080.71965
460.545	65094.26705
460.73	65110.07969
460.915	65098.78414
461.101	65107.82026
461.286	65076.20514
461.471	65094.26705
461.656	65207.38995
461.842	65053.64221
462.027	65082.97715
462.212	65053.64221
462.397	65035.60338
462.582	65067.17804
462.767	64965.79871
462.952	65162.09162
463.138	65046.87646
463.323	64970.29768
463.508	65067.17804
463.693	65026.58779
463.878	65058.15352
464.063	64968.04812
464.248	65004.05992
464.433	65004.05992
464.618	65004.05992
464.803	64999.55624
464.988	65001.808
465.173	64934.32344
465.357	64974.79727
465.542	64979.29748
465.727	64882.67998
465.912	64932.07637
466.097	64988.2998
466.282	64988.2998
466.467	64932.07637
466.651	64887.16749
466.836	64887.16749
467.021	65044.62152
467.206	64938.81804
467.391	64997.30463
467.575	64959.05144
467.76	64950.05726
467.945	64864.73609
468.129	64896.14434
468.314	64858.00965
468.499	64974.79727
468.683	64846.80196
468.868	64927.58271
469.053	64916.35124
469.237	64900.63368
469.422	64846.80196
469.606	64902.87859
469.791	64965.79871
469.975	64884.92366
470.16	64911.85974
470.344	64875.94988
470.529	64947.80911
470.713	64779.63514
470.898	64941.06557
471.082	64902.87859
471.267	64950.05726
471.451	64934.32344
471.636	65051.3868
471.82	64941.06557
472.004	64810.96279
472.189	64929.82946
472.373	65004.05992
472.557	64986.04899
472.742	64972.54739
472.926	64981.54783
473.11	64992.8019
473.295	64898.38893
473.479	64907.36885
473.663	64916.35124
473.847	64979.29748
474.031	64970.29768
474.216	64965.79871
474.4	64990.55077
474.584	64983.79833
474.768	64945.56111
474.952	64880.43646
475.136	64878.19309
475.32	65010.81662
475.505	64898.38893
475.689	64844.56087
475.873	64918.59723
476.057	64909.61422
476.241	64956.80266
476.425	64882.67998
476.609	64846.80196
476.793	64923.08966
476.977	64992.8019
477.161	64887.16749
477.345	64869.22115
477.529	64986.04899
477.713	64831.11756
477.896	64968.04812
478.08	64813.20161
478.264	64880.43646
478.448	64905.12364
478.632	64835.59806
478.816	65044.62152
478.999	64851.28458
479.183	64934.32344
479.367	64902.87859
479.551	64739.39968
479.735	64842.31994
479.918	64878.19309
480.102	64810.96279
480.286	64849.04319
480.469	64916.35124
480.653	64813.20161
480.837	64828.87754
481.02	64855.76781
481.204	64815.44058
481.388	64786.34573
481.571	64688.05731
481.755	64824.39795
481.938	64815.44058
482.122	64851.28458
482.305	64755.04108
482.489	64672.44674
482.673	64717.06736
482.856	64790.82021
483.04	64784.10872
483.223	64775.16215
483.406	64795.29529
483.59	64790.82021
483.773	64734.93203
483.957	64815.44058
484.14	64705.90672
484.323	64670.21724
484.507	64712.60267
484.69	64746.10225
484.874	64817.67969
485.057	64763.98229
485.24	64719.29993
485.423	64855.76781
485.607	64696.98085
485.79	64755.04108
485.973	64710.37054
486.156	64645.7023
486.34	64661.30069
486.523	64643.47454
486.706	64703.67503
486.889	64775.16215
487.072	64670.21724
487.256	64650.15826
487.439	64710.37054
487.622	64652.38645
487.805	64705.90672
487.988	64676.90617
488.171	64645.7023
488.354	64634.56493
488.537	64699.21209
488.72	64652.38645
488.903	64627.88423
489.086	64681.36619
489.269	64641.24692
489.452	64636.79211
489.635	64585.60309
489.818	64476.79774
490.001	64714.83494
490.184	64674.67638
490.367	64672.44674
490.55	64576.70836
490.732	64470.14707
490.915	64614.52671
491.098	64576.70836
491.281	64701.44349
491.464	64627.88423
491.647	64654.6148
491.829	64661.30069
492.012	64570.03879
492.195	64516.72799
492.378	64605.62457
492.56	64461.28144
492.743	64483.44966
492.926	64454.63366
493.108	64594.5001
493.291	64574.48503
493.474	64436.9123
493.656	64452.41801
493.839	64397.07119
494.022	64463.49764
494.204	64392.64712
494.387	64419.19969
494.569	64556.70349
494.752	64425.8409
494.934	64450.2025
495.117	64436.9123
495.299	64474.58072
495.482	64405.92096
495.664	64359.4838
495.847	64441.34182
496.029	64481.23222
496.212	64229.33189
496.394	64452.41801
496.576	64405.92096
496.759	64498.97565
496.941	64321.93518
497.123	64167.72386
497.306	64474.58072
497.488	64388.22359
497.67	64456.84945
497.853	64450.2025
498.035	64324.14286
498.217	64257.97009
498.4	64328.55861
498.582	64479.01491
498.764	64403.70832
498.946	64332.97489
499.128	64346.22694
499.311	64374.95624
499.493	64467.93046
499.675	64335.18323
499.857	64297.6595
500.039	64260.17395
500.221	64297.6595
500.403	64277.80948
500.585	64176.51884
500.767	64238.1413
500.949	64277.80948
501.132	64302.07207
501.314	64335.18323
501.496	64194.11495
501.678	64408.13374
501.859	64264.58204
502.041	64255.76637
502.223	64255.76637
502.405	64288.83595
502.587	64191.91499
502.769	64216.12166
502.951	64213.92041
503.133	64242.54679
503.315	64297.6595
503.497	64271.19517
503.678	64262.37793
503.86	64350.64535
504.042	64145.74535
504.224	64176.51884
504.406	64235.93875
504.587	64291.04164
504.769	64244.74972
504.951	64220.52455
505.132	64328.55861
505.314	64262.37793
505.496	64224.92796
505.678	64291.04164
505.859	64273.39981
506.041	64224.92796
506.222	64240.34398
506.404	64235.93875
506.586	64249.15599
506.767	64185.31587
506.949	64293.24746
507.13	64242.54679
507.312	64251.35932
507.493	64110.6061
507.675	64227.12986
507.856	64224.92796
508.038	64315.31295
508.219	64293.24746
508.401	64291.04164
508.582	64196.31504
508.764	64233.73633
508.945	64200.71561
509.126	64288.83595
509.308	64271.19517
509.489	64255.76637
509.671	64313.10581
509.852	64220.52455
510.033	64313.10581
510.214	64286.63039
510.396	64326.35066
510.577	64392.64712
510.758	64209.51829
510.94	64220.52455
511.121	64255.76637
511.302	64257.97009
511.483	64293.24746
511.664	64229.33189
511.846	64341.80905
512.027	64260.17395
512.208	64324.14286
512.389	64310.89879
512.57	64227.12986
512.751	64264.58204
512.932	64246.95279
513.113	64156.73301
513.294	64280.01451
513.476	64266.78629
513.657	64299.86572
513.838	64374.95624
514.019	64235.93875
514.2	64315.31295
514.381	64260.17395
514.561	64240.34398
514.742	64337.3917
514.923	64268.99066
515.104	64251.35932
515.285	64295.45342
515.466	64326.35066
515.647	64363.90382
515.828	64218.32304
516.009	64262.37793
516.189	64337.3917
516.37	64372.74549
516.551	64346.22694
516.732	64346.22694
516.913	64310.89879
517.093	64339.60031
517.274	64346.22694
517.455	64187.51545
517.636	64260.17395
517.816	64251.35932
517.997	64275.60458
518.178	64282.21967
518.358	64381.58931
518.539	64308.69192
518.72	64291.04164
518.9	64280.01451
519.081	64293.24746
519.261	64242.54679
519.442	64158.93093
519.622	64275.60458
519.803	64280.01451
519.984	64229.33189
520.164	64306.48517
520.345	64286.63039
520.525	64273.39981
520.705	64328.55861
520.886	64224.92796
521.066	64439.12699
521.247	64295.45342
521.427	64299.86572
521.608	64141.35117
521.788	64326.35066
521.968	64128.17168
522.149	64344.01793
522.329	64266.78629
522.509	64374.95624
522.69	64326.35066
522.87	64355.06431
523.05	64381.58931
523.231	64361.69374
523.411	64321.93518
523.591	64268.99066
523.771	64350.64535
523.951	64264.58204
524.132	64246.95279
524.312	64297.6595
524.492	64326.35066
524.672	64271.19517
524.852	64246.95279
525.032	64308.69192
525.213	64275.60458
525.393	64207.31743
525.573	64383.8006
525.753	64235.93875
525.933	64262.37793
526.113	64268.99066
526.293	64372.74549
526.473	64341.80905
526.653	64196.31504
526.833	64332.97489
527.013	64390.43529
527.193	64306.48517
527.373	64321.93518
527.553	64295.45342
527.733	64264.58204
527.913	64352.85476
528.092	64492.32082
528.272	64277.80948
528.452	64335.18323
528.632	64414.77291
528.812	64319.72764
528.992	64268.99066
529.171	64302.07207
529.351	64397.07119
529.531	64390.43529
529.711	64286.63039
529.89	64388.22359
530.07	64280.01451
530.25	64194.11495
530.43	64198.51526
530.609	64321.93518
530.789	64304.27855
530.969	64293.24746
531.148	64361.69374
531.328	64399.28343
531.507	64352.85476
531.687	64266.78629
531.867	64392.64712
532.046	64251.35932
532.226	64357.27399
532.405	64295.45342
532.585	64317.52023
532.764	64339.60031
532.944	64194.11495
533.123	64321.93518
533.303	64372.74549
533.482	64196.31504
533.662	64348.43608
533.841	64291.04164
534.021	64255.76637
534.2	64344.01793
534.379	64388.22359
534.559	64326.35066
534.738	64286.63039
534.917	64428.0549
535.097	64317.52023
535.276	64313.10581
535.455	64271.19517
535.635	64405.92096
535.814	64350.64535
535.993	64282.21967
536.172	64414.77291
536.352	64377.16713
536.531	64397.07119
536.71	64304.27855
536.889	64324.14286
537.068	64363.90382
537.248	64383.8006
537.427	64246.95279
537.606	64317.52023
537.785	64321.93518
537.964	64337.3917
538.143	64401.49581
538.322	64352.85476
538.501	64319.72764
538.68	64374.95624
538.859	64271.19517
539.038	64410.34666
539.217	64410.34666
539.396	64479.01491
539.575	64335.18323
539.754	64317.52023
539.933	64282.21967
540.112	64503.4129
540.291	64341.80905
540.47	64344.01793
540.649	64346.22694
540.828	64503.4129
541.007	64313.10581
541.186	64421.41329
541.364	64321.93518
541.543	64403.70832
541.722	64359.4838
541.901	64397.07119
542.08	64246.95279
542.258	64284.42497
542.437	64428.0549
542.616	64293.24746
542.795	64447.98712
542.973	64403.70832
543.152	64412.55972
543.331	64390.43529
543.509	64436.9123
543.688	64317.52023
543.867	64414.77291
544.045	64428.0549
544.224	64277.80948
544.402	64018.5181
544.581	64381.58931
544.76	64479.01491
544.938	64372.74549
545.117	64341.80905
545.295	64390.43529
545.474	64388.22359
545.652	64463.49764
545.831	64414.77291
546.009	64284.42497
546.188	64388.22359
546.366	64401.49581
546.544	64379.37815
546.723	64374.95624
546.901	64368.32439
547.08	64310.89879
547.258	64421.41329
547.436	64419.19969
547.615	64467.93046
547.793	64394.85909
547.971	64377.16713
548.15	64392.64712
548.328	64339.60031
548.506	64277.80948
548.684	64251.35932
548.863	64412.55972
549.041	64443.55678
549.219	64501.19421
549.397	64363.90382
549.576	64414.77291
549.754	64372.74549
549.932	64399.28343
550.11	64441.34182
550.288	64476.79774
550.466	64563.37051
550.644	64339.60031
550.822	64436.9123
551.001	64476.79774
551.179	64530.04811
551.357	64465.71398
551.535	64408.13374
551.713	64467.93046
551.891	64472.36382
552.069	64516.72799
552.247	64476.79774
552.425	64512.28907
552.603	64512.28907
552.781	64490.10283
552.958	64521.16747
553.136	64498.97565
553.314	64614.52671
553.492	64570.03879
553.67	64596.72471
553.848	64610.07536
554.026	64708.13856
554.204	64690.28797
554.381	64630.11099
554.559	64692.51879
554.737	64766.21797
554.915	64699.21209
555.092	64656.84328
555.27	64730.46498
555.448	64692.51879
555.626	64743.86791
555.803	64831.11756
555.981	64659.07191
556.159	64788.5829
556.336	64797.53306
556.514	64860.25164
556.692	64815.44058
556.869	64788.5829
557.047	64784.10872
557.224	64815.44058
557.402	64831.11756
557.58	64755.04108
557.757	64869.22115
557.935	64968.04812
558.112	64873.70682
558.29	64862.49379
558.467	64968.04812
558.645	64970.29768
558.822	64983.79833
559	64956.80266
559.177	64932.07637
559.354	64907.36885
559.532	64914.10542
559.709	64945.56111
559.887	64907.36885
560.064	65008.56422
560.241	64884.92366
560.419	64905.12364
560.596	64884.92366
560.773	64878.19309
560.951	64860.25164
561.128	64743.86791
561.305	64972.54739
561.482	64914.10542
561.66	64862.49379
561.837	64858.00965
562.014	64907.36885
562.191	64981.54783
562.368	64927.58271
562.546	64860.25164
562.723	64961.30037
562.9	64929.82946
563.077	64855.76781
563.254	64952.30557
563.431	64920.84336
563.608	64833.35774
563.785	64950.05726
563.962	64889.41147
564.139	64979.29748
564.317	64862.49379
564.494	64995.05319
564.671	64797.53306
564.848	64893.89989
565.025	64945.56111
565.201	64972.54739
565.378	64902.87859
565.555	64900.63368
565.732	64936.57066
565.909	64945.56111
566.086	64927.58271
566.263	64977.0473
566.44	64932.07637
566.617	64972.54739
566.794	64893.89989
566.97	64956.80266
567.147	65026.58779
567.324	64929.82946
567.501	64990.55077
567.678	64927.58271
567.854	64950.05726
568.031	65060.40941
568.208	64929.82946
568.384	64995.05319
568.561	64970.29768
568.738	64995.05319
568.915	64972.54739
569.091	65046.87646
569.268	65006.31199
569.444	65055.89778
569.621	65026.58779
569.798	65053.64221
569.974	64997.30463
570.151	64992.8019
570.327	65008.56422
570.504	64981.54783
570.681	65076.20514
570.857	65044.62152
571.034	65053.64221
571.21	65004.05992
571.387	65150.77733
571.563	65123.63971
571.739	64961.30037
571.916	65173.41002
572.092	65098.78414
572.269	65046.87646
572.445	65060.40941
572.622	65107.82026
572.798	65046.87646
572.974	65101.04293
573.151	65157.56541
573.327	65098.78414
573.503	64997.30463
573.68	65159.82844
573.856	65153.03986
574.032	65157.56541
574.208	65037.85768
574.385	65062.66546
574.561	65175.67419
574.737	65148.51496
574.913	65044.62152
575.089	65148.51496
575.266	65153.03986
575.442	65164.35497
575.618	65004.05992
575.794	65125.90028
575.97	65134.9442
576.146	65064.92167
576.322	65130.42191
576.499	65022.08095
576.675	65040.11213
576.851	65042.36675
577.027	64965.79871
577.203	65098.78414
577.379	65139.46713
577.555	65094.26705
577.731	65049.13155
577.907	64723.76551
578.083	65004.05992
578.259	65076.20514
578.435	65051.3868
578.611	64932.07637
578.786	64947.80911
578.962	64999.55624
579.138	65112.33929
579.314	65004.05992
579.49	65076.20514
579.666	64979.29748
579.842	65055.89778
580.017	65055.89778
580.193	65042.36675
580.369	64990.55077
580.545	65015.32187
580.72	64920.84336
580.896	65051.3868
581.072	64941.06557
581.248	64988.2998
581.423	64916.35124
581.599	65019.82777
581.775	64979.29748
581.95	64981.54783
582.126	65008.56422
582.302	64911.85974
582.477	64974.79727
582.653	65035.60338
582.829	65019.82777
583.004	65110.07969
583.18	65006.31199
583.355	65044.62152
583.531	64974.79727
583.706	64952.30557
583.882	65044.62152
584.057	65128.16102
584.233	64990.55077
584.408	64891.65561
584.584	65010.81662
584.759	65073.94812
584.935	65073.94812
585.11	65060.40941
585.285	65094.26705
585.461	65166.61849
585.636	65067.17804
585.812	65085.2348
585.987	65153.03986
586.162	65139.46713
586.338	65080.71965
586.513	65175.67419
586.688	65236.86943
586.863	65114.59905
587.039	65171.14601
587.214	65146.25276
587.389	65141.72885
587.564	65182.4677
587.74	65139.46713
587.915	65307.28111
588.09	65252.7547
588.265	65189.26269
588.44	65266.37718
588.615	65250.48487
588.791	65239.13825
588.966	65293.64037
589.141	65311.82938
589.316	65232.33229
589.491	65245.94572
589.666	65216.45756
589.841	65180.20303
590.016	65291.36751
590.191	65207.38995
590.366	65339.13336
590.541	65357.34973
590.716	65307.28111
590.891	65284.54993
591.066	65380.13569
591.241	65355.07208
591.416	65373.29809
591.591	65361.90554
591.766	65361.90554
591.941	65476.02704
592.116	65489.75116
592.29	65371.01923
592.465	65418.91164
592.64	65533.25327
592.815	65466.88116
592.99	65517.21866
593.165	65476.02704
593.339	65498.90414
593.514	65469.16737
593.689	65391.53516
593.864	65473.7403
594.038	65501.19283
594.213	65393.81558
594.388	65476.02704
594.562	65453.16766
594.737	65391.53516
594.912	65471.45375
595.086	65528.67105
595.261	65480.60103
595.436	65409.78336
595.61	65430.32592
595.785	65423.47683
595.959	65418.91164
596.134	65460.02362
596.309	65457.73812
596.483	65464.59514
596.658	65453.16766
596.832	65480.60103
597.007	65355.07208
597.181	65512.63896
597.356	65428.04272
597.53	65517.21866
597.704	65489.75116
597.879	65448.59791
598.053	65453.16766
598.228	65366.46204
598.402	65364.1837
598.576	65464.59514
598.751	65380.13569
598.925	65439.46051
599.1	65439.46051
599.274	65485.17574
599.448	65450.8827
599.622	65357.34973
599.797	65434.89287
599.971	65434.89287
600.145	65311.82938
600.32	65407.50172
600.494	65432.60931
600.668	65384.69496
600.842	65373.29809
601.016	65482.8883
601.191	65384.69496
601.365	65175.67419
601.539	65405.22026
601.713	65439.46051
601.887	65348.24017
602.061	65464.59514
602.235	65386.97485
602.409	65457.73812
602.583	65396.09617
602.758	65519.50878
602.932	65457.73812
603.106	65521.79908
603.28	65471.45375
603.454	65425.75968
603.628	65380.13569
603.802	65476.02704
603.976	65460.02362
604.149	65441.74459
604.323	65396.09617
604.497	65473.7403
604.671	65391.53516
604.845	65425.75968
605.019	65464.59514
605.193	65476.02704
605.367	65389.25492
605.541	65421.19414
605.714	65366.46204
605.888	65375.57711
606.062	65446.31329
606.236	65549.29668
606.41	65332.30506
606.583	65457.73812
606.757	65480.60103
606.931	65425.75968
607.105	65460.02362
607.278	65464.59514
607.452	65510.34938
607.626	65375.57711
607.799	65460.02362
607.973	65478.31395
608.147	65418.91164
608.32	65476.02704
608.494	65430.32592
608.668	65457.73812
608.841	65357.34973
609.015	65368.74055
609.188	65421.19414
609.362	65530.96207
609.535	65444.02886
609.709	65469.16737
609.882	65432.60931
610.056	65405.22026
610.229	65434.89287
610.403	65437.1766
610.576	65332.30506
610.75	65405.22026
610.923	65434.89287
611.097	65492.03914
611.27	65359.62755
611.443	65425.75968
611.617	65526.38022
611.79	65530.96207
611.963	65423.47683
612.137	65434.89287
612.31	65430.32592
612.483	65457.73812
612.657	65441.74459
612.83	65498.90414
613.003	65496.61563
613.177	65457.73812
613.35	65476.02704
613.523	65434.89287
613.696	65412.06516
613.869	65549.29668
614.043	65386.97485
614.216	65434.89287
614.389	65473.7403
614.562	65396.09617
614.735	65450.8827
614.908	65460.02362
615.082	65393.81558
615.255	65439.46051
615.428	65402.93898
615.601	65480.60103
615.774	65453.16766
615.947	65407.50172
616.12	65311.82938
616.293	65348.24017
616.466	65361.90554
616.639	65380.13569
616.812	65412.06516
616.985	65330.0293
617.158	65409.78336
617.331	65428.04272
617.504	65407.50172
617.677	65485.17574
617.85	65439.46051
618.022	65453.16766
618.195	65434.89287
618.368	65371.01923
618.541	65357.34973
618.714	65437.1766
618.887	65425.75968
619.059	65391.53516
619.232	65434.89287
619.405	65277.73389
619.578	65307.28111
619.751	65416.6293
619.923	65393.81558
620.096	65325.4783
620.269	65345.96321
620.441	65396.09617
620.614	65437.1766
620.787	65364.1837
620.96	65377.85632
621.132	65282.27775
621.305	65255.02469
621.477	65311.82938
621.65	65398.37693
621.823	65412.06516
621.995	65307.28111
622.168	65316.37834
622.34	65318.65307
622.513	65330.0293
622.685	65325.4783
622.858	65307.28111
623.03	65366.46204
623.203	65393.81558
623.375	65345.96321
623.548	65386.97485
623.72	65318.65307
623.893	65320.92798
624.065	65343.68642
624.238	65336.85709
624.41	65437.1766
624.582	65275.46221
624.755	65352.7946
624.927	65330.0293
625.1	65323.20305
625.272	65396.09617
625.444	65289.09481
625.617	65202.85714
625.789	65280.00573
625.961	65341.40981
626.133	65277.73389
626.306	65264.10635
626.478	65264.10635
626.65	65248.21521
626.822	65330.0293
626.995	65227.79582
627.167	65239.13825
627.339	65309.55516
627.511	65200.59099
627.683	65239.13825
627.855	65209.65661
628.027	65289.09481
628.2	65223.26002
628.372	65248.21521
628.544	65250.48487
628.716	65248.21521
628.888	65225.52784
629.06	65162.09162
629.232	65325.4783
629.404	65250.48487
629.576	65166.61849
629.748	65266.37718
629.92	65128.16102
630.092	65116.85897
630.264	65214.19041
630.436	65291.36751
630.608	65223.26002
630.78	65218.72488
630.952	65261.83568
631.124	65184.73253
631.295	65207.38995
631.467	65259.56518
631.639	65175.67419
631.811	65255.02469
631.983	65234.60078
632.155	65234.60078
632.326	65230.06398
632.498	65225.52784
632.67	65234.60078
632.842	65268.64819
633.014	65214.19041
633.185	65157.56541
633.357	65245.94572
633.529	65119.11906
633.7	65153.03986
633.872	65268.64819
634.044	65270.91936
634.215	65159.82844
634.387	65234.60078
634.559	65311.82938
634.73	65255.02469
634.902	65302.73352
635.074	65239.13825
635.245	65230.06398
635.417	65252.7547
635.588	65166.61849
635.76	65311.82938
635.931	65298.1866
636.103	65311.82938
636.274	65207.38995
636.446	65259.56518
636.617	65193.79351
636.789	65286.82229
636.96	65280.00573
637.132	65300.45997
637.303	65289.09481
637.474	65320.92798
637.646	65239.13825
637.817	65314.10378
637.989	65266.37718
638.16	65325.4783
638.331	65348.24017
638.503	65211.92343
638.674	65243.6764
638.845	65348.24017
639.017	65259.56518
639.188	65261.83568
639.359	65350.5173
639.53	65336.85709
639.702	65266.37718
639.873	65345.96321
640.044	65309.55516
640.215	65320.92798
640.387	65220.99237
640.558	65202.85714
640.729	65175.67419
640.9	65205.12346
641.071	65216.45756
641.242	65220.99237
641.413	65232.33229
641.585	65277.73389
641.756	65205.12346
641.927	65332.30506
642.098	65257.29485
642.269	65255.02469
642.44	65320.92798
642.611	65248.21521
642.782	65255.02469
642.953	65164.35497
643.124	65207.38995
643.295	65330.0293
643.466	65196.05917
643.637	65259.56518
643.808	65241.40724
643.979	65173.41002
644.15	65146.25276
644.32	65200.59099
644.491	65218.72488
644.662	65366.46204
644.833	65243.6764
645.004	65209.65661
645.175	65252.7547
645.346	65189.26269
645.516	65282.27775
645.687	65234.60078
645.858	65236.86943
646.029	65186.99753
646.199	65268.64819
646.37	65230.06398
646.541	65293.64037
646.712	65166.61849
646.882	65214.19041
647.053	65245.94572
647.224	65241.40724
647.394	65227.79582
647.565	65232.33229
647.736	65270.91936
647.906	65305.00723
648.077	65232.33229
648.248	65302.73352
648.418	65275.46221
648.589	65318.65307
648.759	65259.56518
648.93	65261.83568
649.1	65320.92798
649.271	65189.26269
649.441	65198.325
649.612	65270.91936
649.782	65196.05917
649.953	65177.93853
650.123	65230.06398
650.294	65171.14601
650.464	65211.92343
650.635	64918.59723
650.805	65234.60078
650.975	65107.82026
651.146	65270.91936
651.316	65225.52784
651.487	65255.02469
651.657	65257.29485
651.827	65189.26269
651.998	65311.82938
652.168	65198.325
652.338	65261.83568
652.508	65327.75371
652.679	65250.48487
652.849	65171.14601
653.019	65207.38995
653.189	65202.85714
653.36	65216.45756
653.53	65311.82938
653.7	65218.72488
653.87	65332.30506
654.04	65266.37718
654.211	65284.54993
654.381	65189.26269
654.551	65302.73352
654.721	65211.92343
654.891	65286.82229
655.061	65209.65661
655.231	65320.92798
655.401	65334.58099
655.571	65300.45997
655.741	65218.72488
655.911	65266.37718
656.081	65205.12346
656.251	65336.85709
656.421	65232.33229
656.591	65327.75371
656.761	65243.6764
656.931	65368.74055
657.101	65334.58099
657.271	65280.00573
657.441	65257.29485
657.611	65371.01923
657.781	65261.83568
657.951	65305.00723
658.121	65243.6764
658.291	65239.13825
658.46	65345.96321
658.63	65273.1907
658.8	65300.45997
658.97	65268.64819
659.14	65216.45756
659.309	65295.9134
659.479	65250.48487
659.649	65325.4783
659.819	65241.40724
659.988	65361.90554
660.158	65393.81558
660.328	65273.1907
660.497	65336.85709
660.667	65323.20305
660.837	65273.1907
661.006	65252.7547
661.176	65412.06516
661.346	65302.73352
661.515	65343.68642
661.685	65348.24017
661.854	65305.00723
662.024	65332.30506
662.194	65293.64037
662.363	65282.27775
662.533	65334.58099
662.702	65430.32592
662.872	65380.13569
663.041	65270.91936
663.211	65416.6293
663.38	65473.7403
663.55	65336.85709
663.719	65332.30506
663.889	65455.4528
664.058	65412.06516
664.227	65357.34973
664.397	65343.68642
664.566	65341.40981
664.735	65430.32592
664.905	65391.53516
665.074	65391.53516
665.244	65375.57711
665.413	65439.46051
665.582	65352.7946
665.751	65386.97485
665.921	65389.25492
666.09	65398.37693
666.259	65350.5173
666.428	65393.81558
666.598	65398.37693
666.767	65341.40981
666.936	65350.5173
667.105	65330.0293
667.275	65382.41524
667.444	65380.13569
667.613	65286.82229
667.782	65439.46051
667.951	65343.68642
668.12	65371.01923
668.289	65382.41524
668.458	65334.58099
668.628	65437.1766
668.797	65405.22026
668.966	65421.19414
669.135	65302.73352
669.304	65373.29809
669.473	65373.29809
669.642	65400.65787
669.811	65402.93898
669.98	65355.07208
670.149	65332.30506
670.318	65448.59791
670.487	65416.6293
670.656	65361.90554
670.824	65407.50172
670.993	65457.73812
671.162	65359.62755
671.331	65345.96321
671.5	65409.78336
671.669	65430.32592
671.838	65446.31329
672.007	65380.13569
672.175	65396.09617
672.344	65407.50172
672.513	65266.37718
672.682	65441.74459
672.85	65357.34973
673.019	65325.4783
673.188	65300.45997
673.357	65355.07208
673.525	65446.31329
673.694	65446.31329
673.863	65396.09617
674.032	65357.34973
674.2	65423.47683
674.369	65423.47683
674.537	65366.46204
674.706	65462.30929
674.875	65414.34715
675.043	65393.81558
675.212	65380.13569
675.381	65380.13569
675.549	65434.89287
675.718	65453.16766
675.886	65405.22026
676.055	65476.02704
676.223	65448.59791
676.392	65384.69496
676.56	65398.37693
676.729	65409.78336
676.897	65471.45375
677.066	65434.89287
677.234	65432.60931
677.403	65535.54464
677.571	65439.46051
677.739	65430.32592
677.908	65453.16766
678.076	65405.22026
678.244	65418.91164
678.413	65469.16737
678.581	65400.65787
678.75	65455.4528
678.918	65460.02362
679.086	65444.02886
679.254	65537.8362
679.423	65348.24017
679.591	65444.02886
679.759	65439.46051
679.928	65466.88116
680.096	65418.91164
680.264	65453.16766
680.432	65414.34715
680.6	65441.74459
680.769	65393.81558
680.937	65494.3273
681.105	65393.81558
681.273	65391.53516
681.441	65446.31329
681.609	65339.13336
681.777	65446.31329
681.945	65412.06516
682.114	65469.16737
682.282	65421.19414
682.45	65453.16766
682.618	65480.60103
682.786	65537.8362
682.954	65432.60931
683.122	65261.83568
683.29	65359.62755
683.458	65466.88116
683.626	65462.30929
683.794	65432.60931
683.962	65551.58932
684.13	65377.85632
684.298	65492.03914
684.465	65425.75968
684.633	65480.60103
684.801	65494.3273
684.969	65469.16737
685.137	65389.25492
685.305	65489.75116
685.473	65430.32592
685.64	65489.75116
685.808	65567.64285
685.976	65361.90554
686.144	65517.21866
686.312	65348.24017
686.479	65510.34938
686.647	65501.19283
686.815	65460.02362
686.983	65478.31395
687.15	65441.74459
687.318	65476.02704
687.486	65444.02886
687.653	65430.32592
687.821	65482.8883
687.989	65432.60931
688.156	65524.08956
688.324	65498.90414
688.492	65441.74459
688.659	65586.00062
688.827	65414.34715
688.994	65508.05997
689.162	65489.75116
689.329	65382.41524
689.497	65510.34938
689.665	65551.58932
689.832	65439.46051
690	65421.19414
690.167	65519.50878
690.335	65480.60103
690.502	65503.4817
690.669	65439.46051
690.837	65482.8883
691.004	65391.53516
691.172	65389.25492
691.339	65373.29809
691.507	65542.41985
691.674	65508.05997
691.841	65517.21866
692.009	65556.17514
692.176	65471.45375
692.343	65517.21866
692.511	65478.31395
692.678	65485.17574
692.845	65471.45375
693.013	65526.38022
693.18	65437.1766
693.347	65457.73812
693.514	65560.76168
693.682	65460.02362
693.849	65505.77075
694.016	65485.17574
694.183	65416.6293
694.35	65599.77659
694.518	65512.63896
694.685	65514.92872
694.852	65510.34938
695.019	65604.37005
695.186	65473.7403
695.353	65396.09617
695.52	65450.8827
695.687	65446.31329
695.855	65464.59514
696.022	65462.30929
696.189	65508.05997
696.356	65526.38022
696.523	65576.82028
696.69	65393.81558
696.857	65604.37005
697.024	65432.60931
697.191	65524.08956
697.358	65434.89287
697.525	65416.6293
697.692	65466.88116
697.858	65542.41985
698.025	65450.8827
698.192	65455.4528
698.359	65556.17514
698.526	65466.88116
698.693	65473.7403
698.86	65517.21866
699.027	65496.61563
699.193	65563.05522
699.36	65517.21866
699.527	65528.67105
699.694	65551.58932
699.861	65551.58932
700.027	65393.81558
700.194	65439.46051
700.361	65455.4528
700.528	65446.31329
700.694	65501.19283
700.861	65537.8362
701.028	65469.16737
701.195	65469.16737
701.361	65460.02362
701.528	65508.05997
701.694	65450.8827
701.861	65576.82028
702.028	65377.85632
702.194	65437.1766
702.361	65508.05997
702.528	65505.77075
702.694	65498.90414
702.861	65352.7946
703.027	65466.88116
703.194	65524.08956
703.36	65469.16737
703.527	65567.64285
703.693	65414.34715
703.86	65402.93898
704.026	65492.03914
704.193	65643.44402
704.359	65489.75116
704.526	65540.12794
