Data from Sun spf450_Subt2__0__09-55-34-340.txt Node

Date: Tue Sep 23 09:55:34 EDT 2025
User: brett
Spectrometer: USB4F03499
Trigger mode: 4
Integration Time (sec): 1.000000E-1
Scans to average: 1
Electric dark correction enabled: true
Nonlinearity correction enabled: true
Boxcar width: 0
XAxis mode: Wavelengths
Number of Pixels in Spectrum: 3648
>>>>>Begin Spectral Data<<<<<
0	-1.15387
0.225	-1.15387
0.449	-1.15387
0.674	3.45429
0.898	-3.45555
1.123	-28.62371
1.347	62.91334
1.572	37.82036
1.796	51.65892
2.021	37.81738
2.245	-74.41013
2.469	-10.32074
2.694	-49.21934
2.918	-42.45994
3.143	44.71264
3.367	-53.89085
3.591	24.08077
3.815	-3.43875
4.04	292.9137
4.264	416.1765
4.488	473.7951
4.712	378.28771
4.936	423.92237
5.161	443.884
5.385	483.9744
5.609	410.83649
5.833	414.5204
6.057	410.43586
6.281	395.03601
6.505	513.02674
6.729	425.73632
6.953	619.95674
7.177	419.59527
7.401	541.65731
7.625	466.95951
7.849	440.51252
8.073	438.55032
8.297	424.30331
8.521	504.0006
8.744	470.27163
8.968	488.75211
9.192	520.34264
9.416	513.95716
9.64	425.04061
9.863	533.44611
10.087	467.87032
10.311	470.05882
10.535	448.57833
10.758	459.30771
10.982	426.75507
11.205	380.74433
11.429	541.73775
11.653	548.28901
11.876	392.00865
12.1	508.43766
12.323	529.37327
12.547	515.01271
12.77	535.70128
12.994	541.09668
13.217	535.3806
13.441	490.30914
13.664	578.51933
13.887	544.5166
14.111	539.44584
14.334	490.4557
14.557	469.42466
14.781	646.78166
15.004	574.48081
15.227	487.10563
15.451	655.09627
15.674	585.66446
15.897	533.1755
16.12	588.90304
16.343	687.82324
16.567	721.53128
16.79	636.59584
17.013	783.84258
17.236	732.79001
17.459	734.54791
17.682	647.39776
17.905	808.31301
18.128	812.01582
18.351	799.55349
18.574	916.63684
18.797	958.61173
19.02	939.79861
19.243	1099.53579
19.466	936.71103
19.689	1001.0809
19.911	1163.644
20.134	1119.65305
20.357	1183.30309
20.58	1208.09002
20.803	1196.05662
21.025	1265.19108
21.248	1307.94108
21.471	1360.48137
21.694	1506.5658
21.916	1569.18907
22.139	1669.23256
22.362	1549.70002
22.584	1665.89328
22.807	1859.74921
23.029	1870.84223
23.252	1982.92764
23.475	2024.02798
23.697	2228.89953
23.92	2301.04046
24.142	2181.99134
24.365	2486.0755
24.587	2508.9776
24.809	2506.53599
25.032	2669.2746
25.254	2712.97597
25.477	2906.0679
25.699	3024.98977
25.921	3197.79732
26.144	3352.54559
26.366	3463.13542
26.588	3562.34717
26.81	3759.82593
27.033	3905.3625
27.255	3934.69197
27.477	4306.0357
27.699	4626.26523
27.921	4615.17984
28.144	4862.1537
28.366	5119.9925
28.588	5139.82365
28.81	5690.31479
29.032	5894.81603
29.254	6148.27711
29.476	6456.86049
29.698	6610.79837
29.92	7020.77837
30.142	7604.04532
30.364	7810.63744
30.586	8253.19631
30.808	8316.76994
31.029	8690.22986
31.251	9152.02385
31.473	9457.88637
31.695	9876.33403
31.917	10028.34652
32.139	10356.23329
32.36	10857.14669
32.582	11191.23696
32.804	11409.6715
33.026	11788.88983
33.247	12187.1846
33.469	12631.50616
33.691	12973.72892
33.912	13529.45067
34.134	13702.40851
34.355	13951.33988
34.577	14524.13593
34.798	14937.29178
35.02	15242.27656
35.242	15258.85482
35.463	16240.70257
35.684	16504.04713
35.906	16694.87217
36.127	17408.58893
36.349	17242.00302
36.57	18288.20901
36.792	19101.38025
37.013	19223.20744
37.234	19464.74737
37.456	20117.83524
37.677	20651.60556
37.898	20856.21758
38.119	21218.36282
38.341	21892.04436
38.562	22555.09963
38.783	22692.14127
39.004	22657.55945
39.225	23294.39721
39.447	24263.60851
39.668	25255.39724
39.889	25132.02468
40.11	26005.81599
40.331	26555.32879
40.552	26944.02001
40.773	27850.56499
40.994	28213.48676
41.215	29028.34707
41.436	29652.1689
41.657	30262.08205
41.878	31568.72378
42.099	32180.29533
42.32	33234.2655
42.54	34671.03844
42.761	35116.84322
42.982	36493.06094
43.203	37668.51456
43.424	38951.0565
43.645	39031.12338
43.865	40857.81049
44.086	40522.29511
44.307	42558.59897
44.527	43318.8535
44.748	44566.39241
44.969	45441.95172
45.189	44791.48521
45.41	44674.69438
45.631	47551.66899
45.851	46714.77201
46.072	46977.65032
46.292	47590.34045
46.513	47868.3959
46.733	50002.42203
46.954	50516.96782
47.174	51911.55175
47.395	50627.28852
47.615	53297.86827
47.836	53977.47724
48.056	55135.61001
48.276	54417.20365
48.497	53411.98891
48.717	56435.57953
48.937	56176.95233
49.158	57543.40215
49.378	56801.68726
49.598	57976.83085
49.818	59664.34312
50.038	59718.43327
50.259	60866.48604
50.479	61076.09632
50.699	63269.39868
50.919	65243.41366
51.139	65752.04574
51.359	65779.55199
51.579	65797.90395
51.799	65795.60932
52.02	65781.84535
52.24	65745.17323
52.46	65786.43261
52.68	65802.49376
52.899	65747.46388
53.119	65772.67299
53.339	65813.97146
53.559	65763.50352
53.779	65683.39296
53.999	65703.97197
54.219	65639.99531
54.439	65825.45372
54.658	65859.92799
54.878	65761.2116
55.098	65800.19876
55.318	65738.30233
55.538	65710.83483
55.757	65761.2116
55.977	65772.67299
56.197	65701.6847
56.416	65774.96581
56.636	65772.67299
56.855	65795.60932
57.075	65710.83483
57.295	65807.08429
57.514	65848.43197
57.734	65745.17323
57.953	65761.2116
58.173	65752.04574
58.392	65788.72652
58.612	65797.90395
58.831	65802.49376
59.051	65740.59245
59.27	65674.25133
59.489	65756.62831
59.709	65770.38035
59.928	65791.0206
60.147	65774.96581
60.367	65800.19876
60.586	65722.2765
60.805	65781.84535
61.024	65763.50352
61.244	65843.83485
61.463	65777.25881
61.682	65754.33693
61.901	65742.88275
62.12	65800.19876
62.34	65763.50352
62.559	65768.08789
62.778	65644.5605
62.997	65788.72652
63.216	65832.34527
63.435	65825.45372
63.654	65674.25133
63.873	65786.43261
64.092	65772.67299
64.311	65713.12281
64.53	65752.04574
64.749	65770.38035
64.968	65758.91987
65.187	65855.32903
65.405	65772.67299
65.624	65768.08789
65.843	65747.46388
66.062	65756.62831
66.281	65719.98781
66.499	65843.83485
66.718	65825.45372
66.937	65742.88275
67.156	65758.91987
67.374	65797.90395
67.593	65660.54418
67.812	65768.08789
68.03	65779.55199
68.249	65827.75072
68.467	65797.90395
68.686	65731.43304
68.905	65719.98781
69.123	65889.83926
69.342	65763.50352
69.56	65793.31487
69.779	65866.82781
69.997	65740.59245
70.216	65781.84535
70.434	65756.62831
70.652	65726.85441
70.871	65772.67299
71.089	65800.19876
71.307	65841.53657
71.526	65749.75472
71.744	65807.08429
71.962	65800.19876
72.181	65804.78893
72.399	65797.90395
72.617	65754.33693
72.835	65738.30233
73.054	65807.08429
73.272	65784.13889
73.49	65795.60932
73.708	65848.43197
73.926	65839.23847
74.144	65834.64282
74.362	65749.75472
74.58	65784.13889
74.798	65781.84535
75.016	65765.79562
75.234	65797.90395
75.452	65772.67299
75.67	65736.01239
75.888	65809.37983
76.106	65710.83483
76.324	65843.83485
76.542	65848.43197
76.76	65768.08789
76.978	65779.55199
77.196	65811.67555
77.413	65738.30233
77.631	65715.41097
77.849	65823.1569
78.067	65733.72263
78.284	65731.43304
78.502	65788.72652
78.72	65788.72652
78.938	65843.83485
79.155	65825.45372
79.373	65779.55199
79.59	65825.45372
79.808	65788.72652
80.026	65813.97146
80.243	65797.90395
80.461	65687.96483
80.678	65671.96637
80.896	65731.43304
81.113	65761.2116
81.331	65793.31487
81.548	65587.54571
81.766	65726.85441
81.983	65749.75472
82.2	65800.19876
82.418	65855.32903
82.635	65719.98781
82.852	65624.02265
83.07	65770.38035
83.287	65781.84535
83.504	65747.46388
83.722	65674.25133
83.939	65763.50352
84.156	65667.39696
84.373	65820.86026
84.591	65779.55199
84.808	65765.79562
85.025	65726.85441
85.242	65800.19876
85.459	65758.91987
85.676	65770.38035
85.893	65836.94055
86.11	65752.04574
86.327	65754.33693
86.544	65765.79562
86.761	65795.60932
86.978	65726.85441
87.195	65761.2116
87.412	65871.42862
87.629	65816.26754
87.846	65777.25881
88.063	65692.53741
88.28	65770.38035
88.497	65779.55199
88.713	65809.37983
88.93	65834.64282
89.147	65795.60932
89.364	65736.01239
89.58	65763.50352
89.797	65736.01239
90.014	65765.79562
90.231	65713.12281
90.447	65791.0206
90.664	65736.01239
90.881	65745.17323
91.097	65699.39762
91.314	65706.25941
91.53	65784.13889
91.747	65754.33693
91.963	65818.56381
92.18	65770.38035
92.396	65770.38035
92.613	65756.62831
92.829	65855.32903
93.046	65839.23847
93.262	65830.0479
93.479	65738.30233
93.695	65745.17323
93.911	65779.55199
94.128	65830.0479
94.344	65692.53741
94.56	65731.43304
94.777	65878.33122
94.993	65809.37983
95.209	65703.97197
95.426	65551.11297
95.642	65832.34527
95.858	65793.31487
96.074	65777.25881
96.29	65843.83485
96.506	65772.67299
96.723	65754.33693
96.939	65825.45372
97.155	65813.97146
97.371	65763.50352
97.587	65795.60932
97.803	65797.90395
98.019	65788.72652
98.235	65731.43304
98.451	65820.86026
98.667	65674.25133
98.883	65811.67555
99.099	65843.83485
99.315	65816.26754
99.53	65756.62831
99.746	65788.72652
99.962	65823.1569
100.178	65779.55199
100.394	65781.84535
100.61	65848.43197
100.825	65733.72263
101.041	65811.67555
101.257	65758.91987
101.473	65763.50352
101.688	65745.17323
101.904	65802.49376
102.12	65770.38035
102.335	65756.62831
102.551	65802.49376
102.766	65710.83483
102.982	65788.72652
103.198	65809.37983
103.413	65768.08789
103.629	65800.19876
103.844	65793.31487
104.06	65781.84535
104.275	65729.14364
104.49	65747.46388
104.706	65820.86026
104.921	65184.63313
105.137	65768.08789
105.352	65701.6847
105.567	65781.84535
105.783	65758.91987
105.998	65752.04574
106.213	65733.72263
106.429	65818.56381
106.644	65802.49376
106.859	65761.2116
107.074	65635.43082
107.29	65820.86026
107.505	65786.43261
107.72	65715.41097
107.935	65719.98781
108.15	65752.04574
108.365	65832.34527
108.58	65729.14364
108.795	65722.2765
109.01	65729.14364
109.226	65853.02983
109.441	65614.89925
109.656	65832.34527
109.871	65665.11253
110.085	65733.72263
110.3	65763.50352
110.515	65841.53657
110.73	65678.82179
110.945	65791.0206
111.16	65733.72263
111.375	65738.30233
111.59	65786.43261
111.804	65756.62831
112.019	65758.91987
112.234	65795.60932
112.449	65733.72263
112.663	65772.67299
112.878	65795.60932
113.093	65774.96581
113.308	65687.96483
113.522	65772.67299
113.737	65894.44377
113.951	65742.88275
114.166	65774.96581
114.381	65763.50352
114.595	65786.43261
114.81	65756.62831
115.024	65770.38035
115.239	65742.88275
115.453	65804.78893
115.668	65788.72652
115.882	65736.01239
116.097	65788.72652
116.311	65871.42862
116.525	65763.50352
116.74	65878.33122
116.954	65726.85441
117.169	65774.96581
117.383	65756.62831
117.597	65713.12281
117.811	65772.67299
118.026	65687.96483
118.24	65724.56537
118.454	65777.25881
118.668	65779.55199
118.883	65779.55199
119.097	65761.2116
119.311	65761.2116
119.525	65763.50352
119.739	65768.08789
119.953	65788.72652
120.167	65646.84335
120.381	65797.90395
120.595	65763.50352
120.809	65804.78893
121.023	65749.75472
121.237	65788.72652
121.451	65797.90395
121.665	65793.31487
121.879	65761.2116
122.093	65697.1107
122.307	65869.12813
122.521	65809.37983
122.735	65697.1107
122.949	65793.31487
123.163	65848.43197
123.376	65731.43304
123.59	65710.83483
123.804	65768.08789
124.018	65804.78893
124.231	65816.26754
124.445	65839.23847
124.659	65694.82397
124.872	65676.53647
125.086	65772.67299
125.3	65768.08789
125.513	65749.75472
125.727	65804.78893
125.94	65752.04574
126.154	65772.67299
126.368	65820.86026
126.581	65795.60932
126.795	65804.78893
127.008	65800.19876
127.222	65832.34527
127.435	65820.86026
127.648	65818.56381
127.862	65747.46388
128.075	65811.67555
128.289	65729.14364
128.502	65823.1569
128.715	65758.91987
128.929	65873.7293
129.142	65800.19876
129.355	65770.38035
129.568	65708.54703
129.782	65747.46388
129.995	65692.53741
130.208	65793.31487
130.421	65813.97146
130.634	65807.08429
130.848	65729.14364
131.061	65692.53741
131.274	65733.72263
131.487	65832.34527
131.7	65804.78893
131.913	65731.43304
132.126	65777.25881
132.339	65681.10729
132.552	65592.1029
132.765	65699.39762
132.978	65777.25881
133.191	65800.19876
133.404	65736.01239
133.617	65795.60932
133.83	65747.46388
134.043	65825.45372
134.255	65850.73081
134.468	65749.75472
134.681	65846.13332
134.894	65887.53728
135.107	65816.26754
135.319	65738.30233
135.532	65765.79562
135.745	65731.43304
135.958	65784.13889
136.17	65857.62842
136.383	65761.2116
136.596	65809.37983
136.808	65781.84535
137.021	65719.98781
137.233	65811.67555
137.446	65754.33693
137.659	65793.31487
137.871	65644.5605
138.084	65784.13889
138.296	65745.17323
138.509	65779.55199
138.721	65813.97146
138.934	65761.2116
139.146	65747.46388
139.358	65807.08429
139.571	65685.67881
139.783	65690.25103
139.996	65765.79562
140.208	65710.83483
140.42	65717.6993
140.632	65745.17323
140.845	65797.90395
141.057	65857.62842
141.269	65804.78893
141.481	65779.55199
141.694	65825.45372
141.906	65758.91987
142.118	65876.03017
142.33	65752.04574
142.542	65832.34527
142.754	65740.59245
142.967	65864.52769
143.179	65818.56381
143.391	65706.25941
143.603	65797.90395
143.815	65694.82397
144.027	65774.96581
144.239	65667.39696
144.451	65765.79562
144.663	65777.25881
144.875	65701.6847
145.086	65669.68158
145.298	65722.2765
145.51	65800.19876
145.722	65703.97197
145.934	65793.31487
146.146	65797.90395
146.358	65781.84535
146.569	65832.34527
146.781	65747.46388
146.993	65830.0479
147.205	65683.39296
147.416	65784.13889
147.628	65774.96581
147.84	65733.72263
148.051	65781.84535
148.263	65747.46388
148.475	65820.86026
148.686	65786.43261
148.898	65710.83483
149.109	65694.82397
149.321	65823.1569
149.532	65701.6847
149.744	65758.91987
149.955	65736.01239
150.167	65791.0206
150.378	65777.25881
150.59	65807.08429
150.801	65846.13332
151.013	65832.34527
151.224	65694.82397
151.435	65781.84535
151.647	65694.82397
151.858	65749.75472
152.069	65781.84535
152.281	65784.13889
152.492	65754.33693
152.703	65788.72652
152.914	65653.69298
153.126	65749.75472
153.337	65754.33693
153.548	65850.73081
153.759	65745.17323
153.97	65830.0479
154.181	65813.97146
154.392	65724.56537
154.604	65841.53657
154.815	65804.78893
155.026	65738.30233
155.237	65781.84535
155.448	65674.25133
155.659	65756.62831
155.87	65763.50352
156.081	65742.88275
156.292	65811.67555
156.502	65843.83485
156.713	65740.59245
156.924	65717.6993
157.135	65761.2116
157.346	65777.25881
157.557	65740.59245
157.768	65807.08429
157.978	65848.43197
158.189	65752.04574
158.4	65813.97146
158.611	65752.04574
158.821	65701.6847
159.032	65791.0206
159.243	65722.2765
159.453	65770.38035
159.664	65770.38035
159.875	65731.43304
160.085	65807.08429
160.296	65731.43304
160.507	65791.0206
160.717	65816.26754
160.928	65729.14364
161.138	65933.61227
161.349	65788.72652
161.559	65855.32903
161.77	65786.43261
161.98	65809.37983
162.19	65736.01239
162.401	65791.0206
162.611	65724.56537
162.822	65797.90395
163.032	65791.0206
163.242	65804.78893
163.453	65724.56537
163.663	65827.75072
163.873	65752.04574
164.084	65813.97146
164.294	65825.45372
164.504	65774.96581
164.714	65756.62831
164.924	65758.91987
165.135	65809.37983
165.345	65729.14364
165.555	65768.08789
165.765	65715.41097
165.975	65724.56537
166.185	65772.67299
166.395	65800.19876
166.605	65841.53657
166.815	65830.0479
167.025	65788.72652
167.235	65690.25103
167.445	65887.53728
167.655	65752.04574
167.865	65781.84535
168.075	65765.79562
168.285	65781.84535
168.495	65763.50352
168.705	65699.39762
168.915	65674.25133
169.124	65738.30233
169.334	65740.59245
169.544	65745.17323
169.754	65781.84535
169.964	65736.01239
170.173	65710.83483
170.383	65756.62831
170.593	65763.50352
170.802	65719.98781
171.012	65823.1569
171.222	65786.43261
171.431	65827.75072
171.641	65793.31487
171.851	65848.43197
172.06	65807.08429
172.27	65809.37983
172.479	65742.88275
172.689	65804.78893
172.898	65752.04574
173.108	65795.60932
173.317	65729.14364
173.527	65834.64282
173.736	65839.23847
173.945	65765.79562
174.155	65726.85441
174.364	65729.14364
174.574	65765.79562
174.783	65777.25881
174.992	65715.41097
175.202	65774.96581
175.411	65717.6993
175.62	65804.78893
175.829	65818.56381
176.039	65754.33693
176.248	65724.56537
176.457	65777.25881
176.666	65692.53741
176.875	65809.37983
177.084	65738.30233
177.294	65816.26754
177.503	65830.0479
177.712	65687.96483
177.921	65811.67555
178.13	65779.55199
178.339	65866.82781
178.548	65800.19876
178.757	65768.08789
178.966	65729.14364
179.175	65742.88275
179.384	65786.43261
179.593	65763.50352
179.802	65841.53657
180.011	65768.08789
180.219	65788.72652
180.428	65758.91987
180.637	65758.91987
180.846	65729.14364
181.055	65761.2116
181.263	65786.43261
181.472	65683.39296
181.681	65816.26754
181.89	65752.04574
182.098	65685.67881
182.307	65793.31487
182.516	65754.33693
182.724	65770.38035
182.933	65733.72263
183.142	65857.62842
183.35	65754.33693
183.559	65761.2116
183.767	65777.25881
183.976	65807.08429
184.184	65820.86026
184.393	65747.46388
184.601	65807.08429
184.81	65687.96483
185.018	65811.67555
185.227	65749.75472
185.435	65830.0479
185.644	65733.72263
185.852	65876.03017
186.06	65731.43304
186.269	65731.43304
186.477	65726.85441
186.685	65774.96581
186.894	65685.67881
187.102	65770.38035
187.31	65701.6847
187.518	65774.96581
187.727	65859.92799
187.935	65836.94055
188.143	65777.25881
188.351	65745.17323
188.559	65836.94055
188.768	65699.39762
188.976	65719.98781
189.184	65736.01239
189.392	65733.72263
189.6	65742.88275
189.808	65662.82826
190.016	65804.78893
190.224	65793.31487
190.432	65763.50352
190.64	65768.08789
190.848	65758.91987
191.056	65710.83483
191.264	65749.75472
191.472	65774.96581
191.679	65791.0206
191.887	65784.13889
192.095	65866.82781
192.303	65747.46388
192.511	65797.90395
192.719	65873.7293
192.926	65717.6993
193.134	65873.7293
193.342	65802.49376
193.55	65781.84535
193.757	65774.96581
193.965	65752.04574
194.173	65736.01239
194.38	65841.53657
194.588	65816.26754
194.796	65795.60932
195.003	65719.98781
195.211	65816.26754
195.418	65797.90395
195.626	65864.52769
195.833	65758.91987
196.041	65715.41097
196.248	65774.96581
196.456	65717.6993
196.663	65674.25133
196.871	65804.78893
197.078	65756.62831
197.285	65781.84535
197.493	65756.62831
197.7	65637.71297
197.908	65749.75472
198.115	65791.0206
198.322	65761.2116
198.529	65832.34527
198.737	65850.73081
198.944	65756.62831
199.151	65848.43197
199.358	65813.97146
199.566	44857.86234
199.773	26987.38923
199.98	12117.86581
200.187	12238.38269
200.394	12135.16997
200.601	12076.3817
200.809	12250.92363
201.016	12071.94666
201.223	12129.56331
201.43	12353.14045
201.637	12309.81924
201.844	12268.05368
202.051	12138.0526
202.258	12227.67887
202.465	12248.79695
202.672	12501.41562
202.878	12131.13941
203.085	12420.67672
203.292	12145.04814
203.499	12393.42061
203.706	12453.62286
203.913	12227.59882
204.12	12565.70659
204.326	12349.79373
204.533	12329.0277
204.74	12073.87739
204.947	12523.07144
205.153	12189.86109
205.36	12189.93811
205.567	12356.00877
205.773	12683.72345
205.98	12519.77154
206.187	12480.65983
206.393	12165.1222
206.6	12506.51767
206.806	12576.06764
207.013	12857.25463
207.22	12450.78816
207.426	12585.02164
207.633	12501.17281
207.839	12271.5002
208.046	12734.95302
208.252	12553.76958
208.458	12629.83432
208.665	12675.46463
208.871	12837.44075
209.078	12707.61578
209.284	12607.66305
209.49	12760.26306
209.697	12681.90862
209.903	12642.31216
210.109	12710.69169
210.316	12519.22412
210.522	12780.91801
210.728	12682.70453
210.934	12647.64861
211.14	12558.93055
211.347	12872.68077
211.553	12713.59368
211.759	12627.62799
211.965	12813.70391
212.171	12766.01885
212.377	12836.54661
212.583	12864.08857
212.789	12832.22668
212.996	12904.78662
213.202	12965.22681
213.408	12947.96096
213.614	12882.23756
213.82	12857.81932
214.025	12702.62697
214.231	12891.71559
214.437	12634.6369
214.643	12811.80642
214.849	12817.43359
215.055	12830.3598
215.261	12801.02577
215.467	12690.12897
215.672	12812.79532
215.878	12733.43404
216.084	12780.02131
216.29	12716.34011
216.496	12731.5431
216.701	12547.17458
216.907	13119.08953
217.113	12615.80727
217.318	12847.56485
217.524	12786.40826
217.73	12856.36239
217.935	12725.43111
218.141	12825.96598
218.346	12644.67178
218.552	12610.23392
218.758	12965.2877
218.963	12762.25978
219.169	12668.59104
219.374	12867.57073
219.58	12796.99377
219.785	12618.02059
219.991	12681.82209
220.196	12813.32373
220.401	12736.62406
220.607	12765.28288
220.812	12777.3837
221.017	12830.3598
221.223	12761.54716
221.428	12722.27034
221.633	12698.49573
221.839	12716.34011
222.044	12913.10362
222.249	12977.38835
222.454	12881.78109
222.66	12704.60866
222.865	12927.90612
223.07	12757.23559
223.275	12751.44449
223.48	12709.28744
223.686	12919.15321
223.891	12821.98956
224.096	12867.51858
224.301	12732.62247
224.506	12880.27992
224.711	12727.81283
224.916	12868.52261
225.121	12575.33656
225.326	12714.16739
225.531	12513.90488
225.736	12638.39005
225.941	12621.87091
226.146	12758.87596
226.351	12569.80168
226.555	12380.03599
226.76	12500.43476
226.965	12646.02024
227.17	12596.67741
227.375	12613.57846
227.58	12700.33234
227.784	12587.22251
227.989	12687.13839
228.194	12665.43629
228.399	12598.39658
228.603	12532.8902
228.808	12668.91014
229.013	12603.73271
229.217	12533.42723
229.422	12572.084
229.627	12537.10399
229.831	12203.00195
230.036	12305.55123
230.24	12478.17018
230.445	12594.36439
230.649	12397.53909
230.854	12487.14779
231.058	12401.14179
231.263	12552.95416
231.467	12444.26526
231.672	12382.44457
231.876	12474.96675
232.081	12481.02665
232.285	12479.72716
232.489	12449.21518
232.694	12445.42386
232.898	12446.75642
233.102	12173.52486
233.307	12397.53909
233.511	12392.24495
233.715	12571.91392
233.919	12472.41867
234.124	12512.45094
234.328	12545.47756
234.532	12623.59579
234.736	12419.35272
234.94	12626.23444
235.145	12419.43629
235.349	12559.17213
235.553	12249.71527
235.757	12589.46154
235.961	12408.80694
236.165	12470.45204
236.369	12385.6309
236.573	12317.37114
236.777	12462.05723
236.981	12511.61366
237.185	12374.96206
237.389	12479.47723
237.593	12525.36354
237.797	12572.18763
238.001	12329.73872
238.205	12884.07174
238.409	12420.95604
238.612	12532.38216
238.816	12343.65253
239.02	12596.47539
239.224	12666.68423
239.428	12551.75356
239.631	12723.85448
239.835	12538.46339
240.039	12439.2356
240.243	12386.8273
240.446	12633.82247
240.65	12497.77858
240.854	12852.73173
241.057	12407.98121
241.261	12644.93927
241.464	12651.50346
241.668	12654.68156
241.872	12492.06573
242.075	12442.99044
242.279	12512.16441
242.482	12747.81991
242.686	12442.2914
242.889	12483.69922
243.093	12393.29616
243.296	12268.82829
243.499	12630.47208
243.703	12558.17143
243.906	12246.95854
244.11	12203.85719
244.313	12347.06839
244.516	12279.53038
244.72	12143.86846
244.923	12339.95024
245.126	12002.75887
245.33	11999.12474
245.533	12060.71195
245.736	12039.70346
245.939	11782.19348
246.142	11848.82609
246.346	11768.03279
246.549	11912.69757
246.752	12002.3227
246.955	11773.85535
247.158	11752.74731
247.361	11591.07599
247.564	11616.10823
247.767	11562.84133
247.971	11619.06624
248.174	11387.54704
248.377	11695.83809
248.58	11525.87945
248.783	11652.58412
248.985	11585.37372
249.188	11458.11604
249.391	11347.53359
249.594	11467.97287
249.797	11641.05943
250	11424.10503
250.203	11256.395
250.406	11426.44386
250.609	11312.98058
250.811	11330.31178
251.014	11378.65749
251.217	11066.35225
251.42	10911.29379
251.622	11203.42394
251.825	11398.35481
252.028	11277.9381
252.231	11189.86872
252.433	11519.9036
252.636	11275.19966
252.838	11401.37293
253.041	11377.59969
253.244	11337.27541
253.446	11214.44615
253.649	11375.93323
253.851	11511.71664
254.054	11301.55013
254.256	11440.11341
254.459	11563.99085
254.661	11575.17584
254.864	11491.98231
255.066	11481.71706
255.269	11642.06196
255.471	11680.2152
255.673	11629.93658
255.876	11739.26588
256.078	11378.0262
256.281	11447.90043
256.483	11651.30089
256.685	11756.74195
256.887	11561.54648
257.09	11915.04369
257.292	11616.60241
257.494	12049.04636
257.696	11782.19348
257.899	11687.1147
258.101	11504.80546
258.303	11725.09159
258.505	12007.11627
258.707	11980.83556
258.909	12147.41335
259.111	11983.48126
259.314	11952.77758
259.516	11952.84189
259.718	12216.42431
259.92	12022.39511
260.122	12321.97671
260.324	12095.91342
260.526	12119.2539
260.728	12223.64799
260.93	12308.11497
261.131	12147.00892
261.333	12422.07515
261.535	12143.50864
261.737	12195.22028
261.939	12285.12152
262.141	12190.76773
262.343	12175.46413
262.544	12310.67943
262.746	12312.69503
262.948	12086.90856
263.15	12368.96303
263.352	12215.33619
263.553	12411.01528
263.755	12389.21269
263.957	12228.9019
264.158	12237.29661
264.36	12645.22206
264.562	12481.57165
264.763	12536.41388
264.965	12483.75893
265.166	12137.39543
265.368	12621.72512
265.569	12684.76023
265.771	12577.35252
265.972	12755.11677
266.174	12805.73509
266.375	12636.72029
266.577	12540.3046
266.778	12278.43027
266.98	12566.23531
267.181	12525.99975
267.383	12744.24342
267.584	12429.93048
267.785	12837.23825
267.987	12569.56742
268.188	12601.66942
268.389	12716.80596
268.591	12661.58352
268.792	12909.30028
268.993	12452.05388
269.194	12555.45596
269.396	12667.43674
269.597	12595.09511
269.798	12788.7038
269.999	12534.33961
270.2	12641.14138
270.401	12570.1172
270.603	12549.68715
270.804	12674.61954
271.005	12537.81413
271.206	12638.81285
271.407	12685.91373
271.608	12621.99564
271.809	12498.24782
272.01	12825.22398
272.211	12673.28799
272.412	12558.99756
272.613	12923.14601
272.814	12834.74233
273.015	12736.62406
273.216	12733.08767
273.416	12617.11564
273.617	12731.02914
273.818	12758.22701
274.019	12803.78984
274.22	12756.3147
274.421	12832.46471
274.621	13066.78415
274.822	12949.70284
275.023	13190.27056
275.224	13213.28461
275.424	13505.7434
275.625	13612.6039
275.826	13458.5017
276.026	13617.12177
276.227	13634.88799
276.428	13689.69153
276.628	13783.74619
276.829	13604.38174
277.029	14097.15869
277.23	13729.01933
277.43	13946.33079
277.631	14050.24778
277.831	14012.60507
278.032	14239.99425
278.232	14062.83319
278.433	14006.20829
278.633	14108.54204
278.834	14220.51781
279.034	14084.83756
279.234	14198.47049
279.435	14233.10629
279.635	14238.73346
279.835	14347.02765
280.036	14324.38261
280.236	14551.17979
280.436	14466.65027
280.637	14552.25414
280.837	14582.8211
281.037	15033.77081
281.237	15098.4607
281.438	15213.31067
281.638	15420.65777
281.838	15618.33075
282.038	15484.83198
282.238	15482.12135
282.438	15780.57538
282.638	15895.6418
282.838	16302.61229
283.038	16147.43705
283.239	15923.56991
283.439	16200.72155
283.639	15918.35952
283.839	16314.08817
284.039	16133.00056
284.238	16405.20357
284.438	16284.73124
284.638	16623.76759
284.838	16503.603
285.038	16643.60794
285.238	17108.19625
285.438	17111.35119
285.638	16999.63723
285.838	17123.77595
286.037	17263.70109
286.237	17519.50325
286.437	17664.25383
286.637	17521.6837
286.836	17634.95182
287.036	18135.68331
287.236	17799.20374
287.436	18304.20644
287.635	18104.04242
287.835	18334.3469
288.034	18442.41552
288.234	18466.25587
288.434	18479.84932
288.633	18256.80518
288.833	18412.96554
289.032	18654.81909
289.232	18448.95331
289.431	18479.39202
289.631	18418.68354
289.83	18495.95076
290.03	18569.48024
290.229	18647.29411
290.429	19016.923
290.628	18713.15073
290.828	18990.27563
291.027	18832.60792
291.226	18771.27344
291.426	19375.9064
291.625	19257.25158
291.824	19926.23911
292.024	20040.01734
292.223	20612.72184
292.422	21492.43844
292.621	21486.38603
292.821	22438.55492
293.02	23277.29783
293.219	24224.17579
293.418	25038.2903
293.617	25954.65355
293.817	26382.0262
294.016	27384.86913
294.215	28091.74031
294.414	28366.50663
294.613	29016.07185
294.812	29812.40217
295.011	30450.33779
295.21	30226.32903
295.409	30854.94248
295.608	31011.25043
295.807	31715.43492
296.006	31902.67394
296.205	32027.01999
296.404	32088.33214
296.603	32896.35769
296.802	33148.251
297.001	33788.06834
297.2	33974.2796
297.398	34179.15256
297.597	34657.38725
297.796	35418.9171
297.995	35877.32942
298.194	36619.28232
298.392	37760.78415
298.591	39108.42761
298.79	39613.38808
298.988	41281.84753
299.187	42509.40229
299.386	43709.42439
299.585	45171.70761
299.783	46479.15885
299.982	47403.25586
300.18	48211.06308
300.379	49386.87364
300.578	50088.10025
300.776	50743.56848
300.975	51321.74456
301.173	51436.07575
301.372	51171.38162
301.57	52192.18635
301.769	51986.07601
301.967	52651.11622
302.166	53452.84579
302.364	54319.98198
302.562	55068.13622
302.761	54926.39754
302.959	56324.35892
303.157	57051.0104
303.356	58311.64175
303.554	59640.05324
303.752	61130.26103
303.951	61557.28608
304.149	63423.72981
304.347	64145.19018
304.546	65128.02309
304.744	65763.50352
304.942	65747.46388
305.14	65816.26754
305.338	65841.53657
305.536	65793.31487
305.735	65795.60932
305.933	65802.49376
306.131	65811.67555
306.329	65724.56537
306.527	65841.53657
306.725	65788.72652
306.923	65736.01239
307.121	65678.82179
307.319	65813.97146
307.517	65816.26754
307.715	65765.79562
307.913	65655.97653
308.111	65742.88275
308.309	65758.91987
308.507	65791.0206
308.705	65779.55199
308.903	65834.64282
309.1	65715.41097
309.298	65719.98781
309.496	65761.2116
309.694	65797.90395
309.892	65823.1569
310.089	65830.0479
310.287	65779.55199
310.485	65809.37983
310.683	65765.79562
310.88	65784.13889
311.078	65791.0206
311.276	65726.85441
311.473	65777.25881
311.671	65768.08789
311.869	65724.56537
312.066	65774.96581
312.264	65772.67299
312.461	65694.82397
312.659	65715.41097
312.856	65726.85441
313.054	65804.78893
313.251	65800.19876
313.449	65713.12281
313.646	65781.84535
313.844	65825.45372
314.041	65781.84535
314.239	65710.83483
314.436	65701.6847
314.634	65669.68158
314.831	65726.85441
315.028	65848.43197
315.226	65781.84535
315.423	65710.83483
315.62	65816.26754
315.817	65763.50352
316.015	65655.97653
316.212	65811.67555
316.409	65731.43304
316.606	65747.46388
316.804	65793.31487
317.001	65827.75072
317.198	65729.14364
317.395	65729.14364
317.592	65729.14364
317.789	65779.55199
317.987	65756.62831
318.184	65809.37983
318.381	65846.13332
318.578	65731.43304
318.775	65841.53657
318.972	65836.94055
319.169	65834.64282
319.366	65726.85441
319.563	65763.50352
319.76	65802.49376
319.957	65793.31487
320.154	65807.08429
320.351	65724.56537
320.547	65747.46388
320.744	65786.43261
320.941	65665.11253
321.138	65779.55199
321.335	65765.79562
321.532	65813.97146
321.728	65733.72263
321.925	65832.34527
322.122	65653.69298
322.319	65880.63246
322.515	65724.56537
322.712	65738.30233
322.909	65850.73081
323.105	65855.32903
323.302	65715.41097
323.499	65694.82397
323.695	65742.88275
323.892	65772.67299
324.089	65729.14364
324.285	65795.60932
324.482	65804.78893
324.678	65855.32903
324.875	65809.37983
325.071	65758.91987
325.268	65763.50352
325.464	65788.72652
325.661	65768.08789
325.857	65781.84535
326.054	65816.26754
326.25	65742.88275
326.446	65740.59245
326.643	65761.2116
326.839	65784.13889
327.035	65864.52769
327.232	65715.41097
327.428	65859.92799
327.624	65853.02983
327.821	65770.38035
328.017	65830.0479
328.213	65807.08429
328.409	65770.38035
328.606	65749.75472
328.802	65752.04574
328.998	65786.43261
329.194	65848.43197
329.39	65726.85441
329.586	65770.38035
329.783	65731.43304
329.979	65758.91987
330.175	65788.72652
330.371	65770.38035
330.567	65786.43261
330.763	65758.91987
330.959	65823.1569
331.155	65795.60932
331.351	65804.78893
331.547	65740.59245
331.743	65880.63246
331.939	65777.25881
332.135	65804.78893
332.33	65703.97197
332.526	65768.08789
332.722	65752.04574
332.918	65719.98781
333.114	65823.1569
333.31	65667.39696
333.506	65694.82397
333.701	65772.67299
333.897	65882.93388
334.093	65729.14364
334.289	65834.64282
334.484	65669.68158
334.68	65685.67881
334.876	65713.12281
335.071	65779.55199
335.267	65708.54703
335.463	65791.0206
335.658	65788.72652
335.854	65899.04903
336.049	65774.96581
336.245	65804.78893
336.441	65800.19876
336.636	65752.04574
336.832	65733.72263
337.027	65651.40959
337.223	65839.23847
337.418	65697.1107
337.613	65830.0479
337.809	65747.46388
338.004	65823.1569
338.2	65765.79562
338.395	65816.26754
338.591	65722.2765
338.786	65830.0479
338.981	65825.45372
339.177	65834.64282
339.372	65761.2116
339.567	65701.6847
339.762	65733.72263
339.958	65901.35194
340.153	65859.92799
340.348	65231.90029
340.543	65781.84535
340.739	65825.45372
340.934	65795.60932
341.129	65742.88275
341.324	65742.88275
341.519	65850.73081
341.714	65915.17331
341.909	65830.0479
342.104	65770.38035
342.299	65779.55199
342.495	65802.49376
342.69	65820.86026
342.885	65807.08429
343.08	65521.54364
343.275	65687.96483
343.469	65791.0206
343.664	65736.01239
343.859	65779.55199
344.054	65841.53657
344.249	65823.1569
344.444	65768.08789
344.639	65802.49376
344.834	65827.75072
345.029	65774.96581
345.223	65749.75472
345.418	65830.0479
345.613	65761.2116
345.808	65779.55199
346.003	65784.13889
346.197	65779.55199
346.392	65763.50352
346.587	65667.39696
346.781	65793.31487
346.976	65752.04574
347.171	65697.1107
347.365	65802.49376
347.56	65800.19876
347.755	65722.2765
347.949	65797.90395
348.144	65827.75072
348.338	65765.79562
348.533	65761.2116
348.727	65811.67555
348.922	65729.14364
349.116	65843.83485
349.311	65772.67299
349.505	65843.83485
349.7	65827.75072
349.894	65816.26754
350.089	65752.04574
350.283	65786.43261
350.477	65770.38035
350.672	65788.72652
350.866	65710.83483
351.06	65765.79562
351.255	65770.38035
351.449	65774.96581
351.643	65774.96581
351.837	65731.43304
352.032	65871.42862
352.226	65820.86026
352.42	65825.45372
352.614	65708.54703
352.809	65811.67555
353.003	65768.08789
353.197	65754.33693
353.391	65791.0206
353.585	65756.62831
353.779	65853.02983
353.973	65708.54703
354.167	65745.17323
354.361	65832.34527
354.555	65719.98781
354.749	65788.72652
354.943	65811.67555
355.137	65747.46388
355.331	65795.60932
355.525	65809.37983
355.719	65747.46388
355.913	65786.43261
356.107	65758.91987
356.301	65788.72652
356.495	65784.13889
356.689	65774.96581
356.883	65747.46388
357.076	65843.83485
357.27	65713.12281
357.464	65809.37983
357.658	65710.83483
357.852	65781.84535
358.045	65749.75472
358.239	65823.1569
358.433	65797.90395
358.626	65809.37983
358.82	65781.84535
359.014	65761.2116
359.207	65770.38035
359.401	65862.22775
359.595	65749.75472
359.788	65802.49376
359.982	65774.96581
360.175	65740.59245
360.369	65797.90395
360.563	65770.38035
360.756	65781.84535
360.95	65758.91987
361.143	65869.12813
361.336	65919.78193
361.53	65825.45372
361.723	65811.67555
361.917	65754.33693
362.11	65813.97146
362.304	65788.72652
362.497	65779.55199
362.69	65653.69298
362.884	65763.50352
363.077	65802.49376
363.27	65795.60932
363.464	65770.38035
363.657	65811.67555
363.85	65729.14364
364.043	65797.90395
364.237	65770.38035
364.43	65742.88275
364.623	65738.30233
364.816	65827.75072
365.009	65717.6993
365.202	65802.49376
365.396	65701.6847
365.589	65763.50352
365.782	65763.50352
365.975	65843.83485
366.168	65733.72263
366.361	65697.1107
366.554	65779.55199
366.747	65811.67555
366.94	65745.17323
367.133	65784.13889
367.326	65795.60932
367.519	65797.90395
367.712	65905.95832
367.905	65793.31487
368.098	65818.56381
368.291	65676.53647
368.484	65779.55199
368.676	65749.75472
368.869	65850.73081
369.062	65791.0206
369.255	65774.96581
369.448	65738.30233
369.64	65763.50352
369.833	65802.49376
370.026	65729.14364
370.219	65846.13332
370.411	65674.25133
370.604	65859.92799
370.797	65763.50352
370.989	65736.01239
371.182	65853.02983
371.375	65724.56537
371.567	65754.33693
371.76	65786.43261
371.952	65855.32903
372.145	65758.91987
372.338	65752.04574
372.53	65761.2116
372.723	65839.23847
372.915	65786.43261
373.108	65813.97146
373.3	65747.46388
373.493	65740.59245
373.685	65738.30233
373.877	65832.34527
374.07	65722.2765
374.262	65713.12281
374.455	65823.1569
374.647	65880.63246
374.839	65715.41097
375.032	65770.38035
375.224	65770.38035
375.416	65830.0479
375.609	65333.42296
375.801	65777.25881
375.993	65823.1569
376.185	65834.64282
376.378	65786.43261
376.57	65765.79562
376.762	65761.2116
376.954	65747.46388
377.146	65733.72263
377.338	65825.45372
377.53	65816.26754
377.723	65731.43304
377.915	65820.86026
378.107	65779.55199
378.299	65811.67555
378.491	65807.08429
378.683	65761.2116
378.875	65802.49376
379.067	65713.12281
379.259	65740.59245
379.451	65788.72652
379.643	65724.56537
379.835	65754.33693
380.027	65708.54703
380.219	65820.86026
380.41	65774.96581
380.602	65768.08789
380.794	65866.82781
380.986	65811.67555
381.178	65781.84535
381.37	65788.72652
381.561	65772.67299
381.753	65690.25103
381.945	65703.97197
382.137	65770.38035
382.328	65800.19876
382.52	65811.67555
382.712	65804.78893
382.903	65708.54703
383.095	65791.0206
383.287	65836.94055
383.478	65749.75472
383.67	65809.37983
383.862	65768.08789
384.053	65761.2116
384.245	65807.08429
384.436	65738.30233
384.628	65765.79562
384.819	65793.31487
385.011	65733.72263
385.202	65786.43261
385.394	65807.08429
385.585	65681.10729
385.777	65802.49376
385.968	65843.83485
386.159	65779.55199
386.351	65772.67299
386.542	65745.17323
386.734	65697.1107
386.925	65797.90395
387.116	65756.62831
387.308	65761.2116
387.499	65823.1569
387.69	65738.30233
387.881	65697.1107
388.073	65772.67299
388.264	65770.38035
388.455	65857.62842
388.646	65724.56537
388.837	65742.88275
389.029	65765.79562
389.22	65791.0206
389.411	65811.67555
389.602	65768.08789
389.793	65802.49376
389.984	65781.84535
390.175	65752.04574
390.366	65738.30233
390.557	65834.64282
390.748	65774.96581
390.939	65850.73081
391.13	65797.90395
391.321	65761.2116
391.512	65793.31487
391.703	65779.55199
391.894	65807.08429
392.085	65830.0479
392.276	65820.86026
392.467	65834.64282
392.658	65816.26754
392.849	65770.38035
393.039	65800.19876
393.23	65784.13889
393.421	65758.91987
393.612	65774.96581
393.803	65781.84535
393.993	65681.10729
394.184	65745.17323
394.375	65832.34527
394.566	65770.38035
394.756	65758.91987
394.947	65722.2765
395.138	65804.78893
395.328	65708.54703
395.519	65729.14364
395.709	65834.64282
395.9	65676.53647
396.091	65804.78893
396.281	65807.08429
396.472	65800.19876
396.662	65825.45372
396.853	65816.26754
397.043	65797.90395
397.234	65802.49376
397.424	65756.62831
397.615	65756.62831
397.805	65765.79562
397.996	65855.32903
398.186	65719.98781
398.376	65701.6847
398.567	65813.97146
398.757	65784.13889
398.947	65915.17331
399.138	65731.43304
399.328	65719.98781
399.518	65836.94055
399.709	65866.82781
399.899	65779.55199
400.089	65816.26754
400.279	65770.38035
400.47	65777.25881
400.66	65774.96581
400.85	65703.97197
401.04	65740.59245
401.23	65715.41097
401.421	65754.33693
401.611	65797.90395
401.801	65738.30233
401.991	65770.38035
402.181	65788.72652
402.371	65756.62831
402.561	65708.54703
402.751	65791.0206
402.941	65742.88275
403.131	65701.6847
403.321	65811.67555
403.511	65761.2116
403.701	65731.43304
403.891	65770.38035
404.081	65768.08789
404.271	65818.56381
404.461	65699.39762
404.651	65827.75072
404.84	65749.75472
405.03	65740.59245
405.22	65816.26754
405.41	65804.78893
405.6	65717.6993
405.789	65722.2765
405.979	65706.25941
406.169	65846.13332
406.359	65779.55199
406.548	65830.0479
406.738	65830.0479
406.928	65703.97197
407.118	65738.30233
407.307	65724.56537
407.497	65772.67299
407.686	65715.41097
407.876	65823.1569
408.066	65802.49376
408.255	65811.67555
408.445	65804.78893
408.634	65731.43304
408.824	65752.04574
409.013	65795.60932
409.203	65717.6993
409.392	65752.04574
409.582	65756.62831
409.771	65850.73081
409.961	65809.37983
410.15	65738.30233
410.34	65749.75472
410.529	65825.45372
410.718	65765.79562
410.908	65637.71297
411.097	65825.45372
411.286	65809.37983
411.476	65839.23847
411.665	65800.19876
411.854	65791.0206
412.044	65834.64282
412.233	65749.75472
412.422	65749.75472
412.611	65768.08789
412.8	65726.85441
412.99	65813.97146
413.179	65733.72263
413.368	65807.08429
413.557	65832.34527
413.746	65784.13889
413.935	65807.08429
414.124	65853.02983
414.313	65717.6993
414.503	65752.04574
414.692	65809.37983
414.881	65697.1107
415.07	65713.12281
415.259	65786.43261
415.448	65710.83483
415.637	65768.08789
415.826	65749.75472
416.015	65841.53657
416.203	65786.43261
416.392	65736.01239
416.581	65797.90395
416.77	65756.62831
416.959	65745.17323
417.148	65804.78893
417.337	65816.26754
417.525	65761.2116
417.714	65742.88275
417.903	65820.86026
418.092	65816.26754
418.281	65749.75472
418.469	65758.91987
418.658	65763.50352
418.847	65793.31487
419.035	65827.75072
419.224	65841.53657
419.413	65818.56381
419.601	65761.2116
419.79	65850.73081
419.979	65786.43261
420.167	65820.86026
420.356	65784.13889
420.544	65747.46388
420.733	65816.26754
420.921	65795.60932
421.11	65747.46388
421.299	65733.72263
421.487	65777.25881
421.675	65772.67299
421.864	65781.84535
422.052	65800.19876
422.241	65681.10729
422.429	65793.31487
422.618	65784.13889
422.806	65761.2116
422.994	65793.31487
423.183	65738.30233
423.371	65793.31487
423.559	65752.04574
423.748	65724.56537
423.936	65797.90395
424.124	65882.93388
424.312	65818.56381
424.501	65761.2116
424.689	65784.13889
424.877	65781.84535
425.065	65779.55199
425.254	65797.90395
425.442	65635.43082
425.63	65703.97197
425.818	65694.82397
426.006	65784.13889
426.194	65690.25103
426.382	65708.54703
426.57	65740.59245
426.758	65756.62831
426.946	65793.31487
427.134	65731.43304
427.323	65809.37983
427.51	65779.55199
427.698	65765.79562
427.886	65736.01239
428.074	65699.39762
428.262	65880.63246
428.45	65770.38035
428.638	65763.50352
428.826	65738.30233
429.014	65811.67555
429.202	65885.23548
429.39	65848.43197
429.577	65708.54703
429.765	65710.83483
429.953	65706.25941
430.141	65781.84535
430.329	65738.30233
430.516	65807.08429
430.704	65646.84335
430.892	65795.60932
431.079	65869.12813
431.267	65710.83483
431.455	65846.13332
431.643	65699.39762
431.83	65747.46388
432.018	65736.01239
432.205	65795.60932
432.393	65843.83485
432.581	65779.55199
432.768	65710.83483
432.956	65715.41097
433.143	65756.62831
433.331	65729.14364
433.518	65795.60932
433.706	65777.25881
433.893	65669.68158
434.081	65802.49376
434.268	65685.67881
434.456	65818.56381
434.643	65807.08429
434.83	65719.98781
435.018	65719.98781
435.205	65802.49376
435.392	65802.49376
435.58	65876.03017
435.767	65717.6993
435.954	65772.67299
436.142	65710.83483
436.329	65811.67555
436.516	65793.31487
436.703	65736.01239
436.891	65697.1107
437.078	65722.2765
437.265	65717.6993
437.452	65726.85441
437.639	65761.2116
437.827	65742.88275
438.014	65724.56537
438.201	65777.25881
438.388	65719.98781
438.575	65770.38035
438.762	65772.67299
438.949	65786.43261
439.136	65731.43304
439.323	65678.82179
439.51	65779.55199
439.697	65701.6847
439.884	65706.25941
440.071	65731.43304
440.258	65703.97197
440.445	65715.41097
440.632	65521.54364
440.819	65724.56537
441.006	65653.69298
441.193	65738.30233
441.38	65701.6847
441.566	65763.50352
441.753	65772.67299
441.94	65706.25941
442.127	65770.38035
442.314	65690.25103
442.5	65667.39696
442.687	65683.39296
442.874	65710.83483
443.061	65717.6993
443.247	65701.6847
443.434	65612.61883
443.621	65779.55199
443.807	65724.56537
443.994	65601.21936
444.181	65738.30233
444.367	65768.08789
444.554	65683.39296
444.74	65708.54703
444.927	65738.30233
445.114	65681.10729
445.3	65555.66466
445.487	65633.14883
445.673	65649.12639
445.86	65678.82179
446.046	65703.97197
446.233	65667.39696
446.419	65699.39762
446.605	65594.38176
446.792	65598.93999
446.978	65738.30233
447.165	65674.25133
447.351	65699.39762
447.537	65713.12281
447.724	65722.2765
447.91	65608.05852
448.096	65633.14883
448.283	65569.32384
448.469	65671.96637
448.655	65655.97653
448.841	65603.49891
449.028	65642.27781
449.214	65628.58539
449.4	65605.77863
449.586	65626.30393
449.773	65598.93999
449.959	65626.30393
450.145	65512.45117
450.331	65642.27781
450.517	65671.96637
450.703	65551.11297
450.889	65644.5605
451.075	65589.82422
451.261	65514.72404
451.447	65507.90596
451.633	65587.54571
451.819	65576.15575
452.005	65505.6336
452.191	65573.87827
452.377	65555.66466
452.563	65532.91305
452.749	65537.46201
452.935	65512.45117
453.121	65473.83836
453.307	65503.36142
453.493	65446.61151
453.679	65487.46085
453.865	65457.9531
454.05	65430.74027
454.236	65476.10836
454.422	65542.01164
454.608	65498.81755
454.794	65519.27027
454.979	65528.36478
455.165	65496.54588
455.351	65437.54123
455.537	65442.07604
455.722	65367.33643
455.908	65448.87949
456.094	65385.43864
456.279	65365.07439
456.465	65331.16336
456.65	65426.20713
456.836	65394.49369
457.022	65383.17529
457.207	65399.0222
457.393	65351.50558
457.578	65403.55137
457.764	65306.31847
457.949	65378.64908
458.135	65317.60918
458.32	65453.41596
458.506	65405.8162
458.691	65369.59863
458.877	65349.24469
459.062	65414.87718
459.248	65421.67466
459.433	65297.28881
459.618	65274.72588
459.804	65371.861
459.989	65279.23718
460.174	65274.72588
460.36	65301.80332
460.545	65315.35072
460.73	65331.16336
460.915	65319.86781
461.101	65328.90393
461.286	65297.28881
461.471	65315.35072
461.656	65428.47362
461.842	65274.72588
462.027	65304.06081
462.212	65274.72588
462.397	65256.68705
462.582	65288.26171
462.767	65186.88238
462.952	65383.17529
463.138	65267.96012
463.323	65191.38134
463.508	65288.26171
463.693	65247.67146
463.878	65279.23718
464.063	65189.13178
464.248	65225.14358
464.433	65225.14358
464.618	65225.14358
464.803	65220.63991
464.988	65222.89167
465.173	65155.40711
465.357	65195.88093
465.542	65200.38115
465.727	65103.76365
465.912	65153.16004
466.097	65209.38347
466.282	65209.38347
466.467	65153.16004
466.651	65108.25116
466.836	65108.25116
467.021	65265.70519
467.206	65159.90171
467.391	65218.3883
467.575	65180.13511
467.76	65171.14093
467.945	65085.81976
468.129	65117.22801
468.314	65079.09332
468.499	65195.88093
468.683	65067.88563
468.868	65148.66638
469.053	65137.43491
469.237	65121.71735
469.422	65067.88563
469.606	65123.96225
469.791	65186.88238
469.975	65106.00733
470.16	65132.94341
470.344	65097.03355
470.529	65168.89277
470.713	65000.7188
470.898	65162.14924
471.082	65123.96225
471.267	65171.14093
471.451	65155.40711
471.636	65272.47047
471.82	65162.14924
472.004	65032.04646
472.189	65150.91313
472.373	65225.14358
472.557	65207.13265
472.742	65193.63106
472.926	65202.6315
473.11	65213.88557
473.295	65119.4726
473.479	65128.45252
473.663	65137.43491
473.847	65200.38115
474.031	65191.38134
474.216	65186.88238
474.4	65211.63444
474.584	65204.882
474.768	65166.64477
474.952	65101.52013
475.136	65099.27676
475.32	65231.90029
475.505	65119.4726
475.689	65065.64454
475.873	65139.6809
476.057	65130.69789
476.241	65177.88633
476.425	65103.76365
476.609	65067.88563
476.793	65144.17333
476.977	65213.88557
477.161	65108.25116
477.345	65090.30482
477.529	65207.13265
477.713	65052.20123
477.896	65189.13178
478.08	65034.28528
478.264	65101.52013
478.448	65126.20731
478.632	65056.68173
478.816	65265.70519
478.999	65072.36825
479.183	65155.40711
479.367	65123.96225
479.551	64960.48334
479.735	65063.40361
479.918	65099.27676
480.102	65032.04646
480.286	65070.12686
480.469	65137.43491
480.653	65034.28528
480.837	65049.96121
481.02	65076.85148
481.204	65036.52425
481.388	65007.4294
481.571	64909.14098
481.755	65045.48162
481.938	65036.52425
482.122	65072.36825
482.305	64976.12475
482.489	64893.5304
482.673	64938.15103
482.856	65011.90388
483.04	65005.19239
483.223	64996.24582
483.406	65016.37896
483.59	65011.90388
483.773	64956.0157
483.957	65036.52425
484.14	64926.99039
484.323	64891.3009
484.507	64933.68633
484.69	64967.18592
484.874	65038.76336
485.057	64985.06596
485.24	64940.3836
485.423	65076.85148
485.607	64918.06451
485.79	64976.12475
485.973	64931.45421
486.156	64866.78597
486.34	64882.38435
486.523	64864.55821
486.706	64924.7587
486.889	64996.24582
487.072	64891.3009
487.256	64871.24193
487.439	64931.45421
487.622	64873.47012
487.805	64926.99039
487.988	64897.98984
488.171	64866.78597
488.354	64855.6486
488.537	64920.29576
488.72	64873.47012
488.903	64848.9679
489.086	64902.44986
489.269	64862.33059
489.452	64857.87578
489.635	64806.68676
489.818	64697.88141
490.001	64935.91861
490.184	64895.76005
490.367	64893.5304
490.55	64797.79203
490.732	64691.23074
490.915	64835.61038
491.098	64797.79203
491.281	64922.52716
491.464	64848.9679
491.647	64875.69846
491.829	64882.38435
492.012	64791.12246
492.195	64737.81166
492.378	64826.70824
492.56	64682.36511
492.743	64704.53333
492.926	64675.71733
493.108	64815.58377
493.291	64795.5687
493.474	64657.99597
493.656	64673.50168
493.839	64618.15486
494.022	64684.58131
494.204	64613.73079
494.387	64640.28336
494.569	64777.78716
494.752	64646.92456
494.934	64671.28617
495.117	64657.99597
495.299	64695.66438
495.482	64627.00463
495.664	64580.56747
495.847	64662.42548
496.029	64702.31589
496.212	64450.41555
496.394	64673.50168
496.576	64627.00463
496.759	64720.05932
496.941	64543.01885
497.123	64388.80753
497.306	64695.66438
497.488	64609.30726
497.67	64677.93312
497.853	64671.28617
498.035	64545.22652
498.217	64479.05376
498.4	64549.64227
498.582	64700.09858
498.764	64624.79199
498.946	64554.05856
499.128	64567.3106
499.311	64596.03991
499.493	64689.01413
499.675	64556.2669
499.857	64518.74317
500.039	64481.25762
500.221	64518.74317
500.403	64498.89315
500.585	64397.60251
500.767	64459.22497
500.949	64498.89315
501.132	64523.15574
501.314	64556.2669
501.496	64415.19862
501.678	64629.21741
501.859	64485.66571
502.041	64476.85004
502.223	64476.85004
502.405	64509.91962
502.587	64412.99865
502.769	64437.20533
502.951	64435.00408
503.133	64463.63045
503.315	64518.74317
503.497	64492.27884
503.678	64483.4616
503.86	64571.72902
504.042	64366.82902
504.224	64397.60251
504.406	64457.02242
504.587	64512.12531
504.769	64465.83339
504.951	64441.60822
505.132	64549.64227
505.314	64483.4616
505.496	64446.01163
505.678	64512.12531
505.859	64494.48348
506.041	64446.01163
506.222	64461.42765
506.404	64457.02242
506.586	64470.23966
506.767	64406.39954
506.949	64514.33113
507.13	64463.63045
507.312	64472.44299
507.493	64331.68977
507.675	64448.21353
507.856	64446.01163
508.038	64536.39662
508.219	64514.33113
508.401	64512.12531
508.582	64417.39871
508.764	64454.82
508.945	64421.79928
509.126	64509.91962
509.308	64492.27884
509.489	64476.85004
509.671	64534.18948
509.852	64441.60822
510.033	64534.18948
510.214	64507.71406
510.396	64547.43433
510.577	64613.73079
510.758	64430.60196
510.94	64441.60822
511.121	64476.85004
511.302	64479.05376
511.483	64514.33113
511.664	64450.41555
511.846	64562.89272
512.027	64481.25762
512.208	64545.22652
512.389	64531.98246
512.57	64448.21353
512.751	64485.66571
512.932	64468.03646
513.113	64377.81668
513.294	64501.09818
513.476	64487.86996
513.657	64520.94939
513.838	64596.03991
514.019	64457.02242
514.2	64536.39662
514.381	64481.25762
514.561	64461.42765
514.742	64558.47537
514.923	64490.07433
515.104	64472.44299
515.285	64516.53709
515.466	64547.43433
515.647	64584.98749
515.828	64439.40671
516.009	64483.4616
516.189	64558.47537
516.37	64593.82916
516.551	64567.3106
516.732	64567.3106
516.913	64531.98246
517.093	64560.68398
517.274	64567.3106
517.455	64408.59912
517.636	64481.25762
517.816	64472.44299
517.997	64496.68825
518.178	64503.30334
518.358	64602.67298
518.539	64529.77558
518.72	64512.12531
518.9	64501.09818
519.081	64514.33113
519.261	64463.63045
519.442	64380.0146
519.622	64496.68825
519.803	64501.09818
519.984	64450.41555
520.164	64527.56884
520.345	64507.71406
520.525	64494.48348
520.705	64549.64227
520.886	64446.01163
521.066	64660.21066
521.247	64516.53709
521.427	64520.94939
521.608	64362.43484
521.788	64547.43433
521.968	64349.25535
522.149	64565.1016
522.329	64487.86996
522.509	64596.03991
522.69	64547.43433
522.87	64576.14798
523.05	64602.67298
523.231	64582.77741
523.411	64543.01885
523.591	64490.07433
523.771	64571.72902
523.951	64485.66571
524.132	64468.03646
524.312	64518.74317
524.492	64547.43433
524.672	64492.27884
524.852	64468.03646
525.032	64529.77558
525.213	64496.68825
525.393	64428.4011
525.573	64604.88427
525.753	64457.02242
525.933	64483.4616
526.113	64490.07433
526.293	64593.82916
526.473	64562.89272
526.653	64417.39871
526.833	64554.05856
527.013	64611.51896
527.193	64527.56884
527.373	64543.01885
527.553	64516.53709
527.733	64485.66571
527.913	64573.93843
528.092	64713.40449
528.272	64498.89315
528.452	64556.2669
528.632	64635.85657
528.812	64540.81131
528.992	64490.07433
529.171	64523.15574
529.351	64618.15486
529.531	64611.51896
529.711	64507.71406
529.89	64609.30726
530.07	64501.09818
530.25	64415.19862
530.43	64419.59893
530.609	64543.01885
530.789	64525.36222
530.969	64514.33113
531.148	64582.77741
531.328	64620.3671
531.507	64573.93843
531.687	64487.86996
531.867	64613.73079
532.046	64472.44299
532.226	64578.35765
532.405	64516.53709
532.585	64538.6039
532.764	64560.68398
532.944	64415.19862
533.123	64543.01885
533.303	64593.82916
533.482	64417.39871
533.662	64569.51975
533.841	64512.12531
534.021	64476.85004
534.2	64565.1016
534.379	64609.30726
534.559	64547.43433
534.738	64507.71406
534.917	64649.13857
535.097	64538.6039
535.276	64534.18948
535.455	64492.27884
535.635	64627.00463
535.814	64571.72902
535.993	64503.30334
536.172	64635.85657
536.352	64598.2508
536.531	64618.15486
536.71	64525.36222
536.889	64545.22652
537.068	64584.98749
537.248	64604.88427
537.427	64468.03646
537.606	64538.6039
537.785	64543.01885
537.964	64558.47537
538.143	64622.57948
538.322	64573.93843
538.501	64540.81131
538.68	64596.03991
538.859	64492.27884
539.038	64631.43033
539.217	64631.43033
539.396	64700.09858
539.575	64556.2669
539.754	64538.6039
539.933	64503.30334
540.112	64724.49657
540.291	64562.89272
540.47	64565.1016
540.649	64567.3106
540.828	64724.49657
541.007	64534.18948
541.186	64642.49696
541.364	64543.01885
541.543	64624.79199
541.722	64580.56747
541.901	64618.15486
542.08	64468.03646
542.258	64505.50864
542.437	64649.13857
542.616	64514.33113
542.795	64669.07079
542.973	64624.79199
543.152	64633.64338
543.331	64611.51896
543.509	64657.99597
543.688	64538.6039
543.867	64635.85657
544.045	64649.13857
544.224	64498.89315
544.402	64239.60177
544.581	64602.67298
544.76	64700.09858
544.938	64593.82916
545.117	64562.89272
545.295	64611.51896
545.474	64609.30726
545.652	64684.58131
545.831	64635.85657
546.009	64505.50864
546.188	64609.30726
546.366	64622.57948
546.544	64600.46182
546.723	64596.03991
546.901	64589.40806
547.08	64531.98246
547.258	64642.49696
547.436	64640.28336
547.615	64689.01413
547.793	64615.94276
547.971	64598.2508
548.15	64613.73079
548.328	64560.68398
548.506	64498.89315
548.684	64472.44299
548.863	64633.64338
549.041	64664.64045
549.219	64722.27788
549.397	64584.98749
549.576	64635.85657
549.754	64593.82916
549.932	64620.3671
550.11	64662.42548
550.288	64697.88141
550.466	64784.45418
550.644	64560.68398
550.822	64657.99597
551.001	64697.88141
551.179	64751.13177
551.357	64686.79765
551.535	64629.21741
551.713	64689.01413
551.891	64693.44749
552.069	64737.81166
552.247	64697.88141
552.425	64733.37274
552.603	64733.37274
552.781	64711.18649
552.958	64742.25114
553.136	64720.05932
553.314	64835.61038
553.492	64791.12246
553.67	64817.80838
553.848	64831.15902
554.026	64929.22222
554.204	64911.37164
554.381	64851.19465
554.559	64913.60245
554.737	64987.30163
554.915	64920.29576
555.092	64877.92695
555.27	64951.54865
555.448	64913.60245
555.626	64964.95158
555.803	65052.20123
555.981	64880.15558
556.159	65009.66657
556.336	65018.61673
556.514	65081.33531
556.692	65036.52425
556.869	65009.66657
557.047	65005.19239
557.224	65036.52425
557.402	65052.20123
557.58	64976.12475
557.757	65090.30482
557.935	65189.13178
558.112	65094.79048
558.29	65083.57746
558.467	65189.13178
558.645	65191.38134
558.822	65204.882
559	65177.88633
559.177	65153.16004
559.354	65128.45252
559.532	65135.18908
559.709	65166.64477
559.887	65128.45252
560.064	65229.64789
560.241	65106.00733
560.419	65126.20731
560.596	65106.00733
560.773	65099.27676
560.951	65081.33531
561.128	64964.95158
561.305	65193.63106
561.482	65135.18908
561.66	65083.57746
561.837	65079.09332
562.014	65128.45252
562.191	65202.6315
562.368	65148.66638
562.546	65081.33531
562.723	65182.38404
562.9	65150.91313
563.077	65076.85148
563.254	65173.38924
563.431	65141.92703
563.608	65054.4414
563.785	65171.14093
563.962	65110.49514
564.139	65200.38115
564.317	65083.57746
564.494	65216.13686
564.671	65018.61673
564.848	65114.98356
565.025	65166.64477
565.201	65193.63106
565.378	65123.96225
565.555	65121.71735
565.732	65157.65433
565.909	65166.64477
566.086	65148.66638
566.263	65198.13096
566.44	65153.16004
566.617	65193.63106
566.794	65114.98356
566.97	65177.88633
567.147	65247.67146
567.324	65150.91313
567.501	65211.63444
567.678	65148.66638
567.854	65171.14093
568.031	65281.49308
568.208	65150.91313
568.384	65216.13686
568.561	65191.38134
568.738	65216.13686
568.915	65193.63106
569.091	65267.96012
569.268	65227.39566
569.444	65276.98145
569.621	65247.67146
569.798	65274.72588
569.974	65218.3883
570.151	65213.88557
570.327	65229.64789
570.504	65202.6315
570.681	65297.28881
570.857	65265.70519
571.034	65274.72588
571.21	65225.14358
571.387	65371.861
571.563	65344.72338
571.739	65182.38404
571.916	65394.49369
572.092	65319.86781
572.269	65267.96012
572.445	65281.49308
572.622	65328.90393
572.798	65267.96012
572.974	65322.12659
573.151	65378.64908
573.327	65319.86781
573.503	65218.3883
573.68	65380.91211
573.856	65374.12353
574.032	65378.64908
574.208	65258.94135
574.385	65283.74913
574.561	65396.75786
574.737	65369.59863
574.913	65265.70519
575.089	65369.59863
575.266	65374.12353
575.442	65385.43864
575.618	65225.14358
575.794	65346.98395
575.97	65356.02787
576.146	65286.00534
576.322	65351.50558
576.499	65243.16462
576.675	65261.1958
576.851	65263.45042
577.027	65186.88238
577.203	65319.86781
577.379	65360.5508
577.555	65315.35072
577.731	65270.21522
577.907	64944.84918
578.083	65225.14358
578.259	65297.28881
578.435	65272.47047
578.611	65153.16004
578.786	65168.89277
578.962	65220.63991
579.138	65333.42296
579.314	65225.14358
579.49	65297.28881
579.666	65200.38115
579.842	65276.98145
580.017	65276.98145
580.193	65263.45042
580.369	65211.63444
580.545	65236.40554
580.72	65141.92703
580.896	65272.47047
581.072	65162.14924
581.248	65209.38347
581.423	65137.43491
581.599	65240.91144
581.775	65200.38115
581.95	65202.6315
582.126	65229.64789
582.302	65132.94341
582.477	65195.88093
582.653	65256.68705
582.829	65240.91144
583.004	65331.16336
583.18	65227.39566
583.355	65265.70519
583.531	65195.88093
583.706	65173.38924
583.882	65265.70519
584.057	65349.24469
584.233	65211.63444
584.408	65112.73927
584.584	65231.90029
584.759	65295.03179
584.935	65295.03179
585.11	65281.49308
585.285	65315.35072
585.461	65387.70216
585.636	65288.26171
585.812	65306.31847
585.987	65374.12353
586.162	65360.5508
586.338	65301.80332
586.513	65396.75786
586.688	65457.9531
586.863	65335.68272
587.039	65392.22968
587.214	65367.33643
587.389	65362.81252
587.564	65403.55137
587.74	65360.5508
587.915	65528.36478
588.09	65473.83836
588.265	65410.34636
588.44	65487.46085
588.615	65471.56854
588.791	65460.22192
588.966	65514.72404
589.141	65532.91305
589.316	65453.41596
589.491	65467.02939
589.666	65437.54123
589.841	65401.2867
590.016	65512.45117
590.191	65428.47362
590.366	65560.21703
590.541	65578.4334
590.716	65528.36478
590.891	65505.6336
591.066	65601.21936
591.241	65576.15575
591.416	65594.38176
591.591	65582.98921
591.766	65582.98921
591.941	65697.1107
592.116	65710.83483
592.29	65592.1029
592.465	65639.99531
592.64	65754.33693
592.815	65687.96483
592.99	65738.30233
593.165	65697.1107
593.339	65719.98781
593.514	65690.25103
593.689	65612.61883
593.864	65694.82397
594.038	65722.2765
594.213	65614.89925
594.388	65697.1107
594.562	65674.25133
594.737	65612.61883
594.912	65692.53741
595.086	65749.75472
595.261	65701.6847
595.436	65630.86702
595.61	65651.40959
595.785	65644.5605
595.959	65639.99531
596.134	65681.10729
596.309	65678.82179
596.483	65685.67881
596.658	65674.25133
596.832	65701.6847
597.007	65576.15575
597.181	65733.72263
597.356	65649.12639
597.53	65738.30233
597.704	65710.83483
597.879	65669.68158
598.053	65674.25133
598.228	65587.54571
598.402	65585.26737
598.576	65685.67881
598.751	65601.21936
598.925	65660.54418
599.1	65660.54418
599.274	65706.25941
599.448	65671.96637
599.622	65578.4334
599.797	65655.97653
599.971	65655.97653
600.145	65532.91305
600.32	65628.58539
600.494	65653.69298
600.668	65605.77863
600.842	65594.38176
601.016	65703.97197
601.191	65605.77863
601.365	65396.75786
601.539	65626.30393
601.713	65660.54418
601.887	65569.32384
602.061	65685.67881
602.235	65608.05852
602.409	65678.82179
602.583	65617.17984
602.758	65740.59245
602.932	65678.82179
603.106	65742.88275
603.28	65692.53741
603.454	65646.84335
603.628	65601.21936
603.802	65697.1107
603.976	65681.10729
604.149	65662.82826
604.323	65617.17984
604.497	65694.82397
604.671	65612.61883
604.845	65646.84335
605.019	65685.67881
605.193	65697.1107
605.367	65610.33859
605.541	65642.27781
605.714	65587.54571
605.888	65596.66078
606.062	65667.39696
606.236	65770.38035
606.41	65553.38873
606.583	65678.82179
606.757	65701.6847
606.931	65646.84335
607.105	65681.10729
607.278	65685.67881
607.452	65731.43304
607.626	65596.66078
607.799	65681.10729
607.973	65699.39762
608.147	65639.99531
608.32	65697.1107
608.494	65651.40959
608.668	65678.82179
608.841	65578.4334
609.015	65589.82422
609.188	65642.27781
609.362	65752.04574
609.535	65665.11253
609.709	65690.25103
609.882	65653.69298
610.056	65626.30393
610.229	65655.97653
610.403	65658.26027
610.576	65553.38873
610.75	65626.30393
610.923	65655.97653
611.097	65713.12281
611.27	65580.71122
611.443	65646.84335
611.617	65747.46388
611.79	65752.04574
611.963	65644.5605
612.137	65655.97653
612.31	65651.40959
612.483	65678.82179
612.657	65662.82826
612.83	65719.98781
613.003	65717.6993
613.177	65678.82179
613.35	65697.1107
613.523	65655.97653
613.696	65633.14883
613.869	65770.38035
614.043	65608.05852
614.216	65655.97653
614.389	65694.82397
614.562	65617.17984
614.735	65671.96637
614.908	65681.10729
615.082	65614.89925
615.255	65660.54418
615.428	65624.02265
615.601	65701.6847
615.774	65674.25133
615.947	65628.58539
616.12	65532.91305
616.293	65569.32384
616.466	65582.98921
616.639	65601.21936
616.812	65633.14883
616.985	65551.11297
617.158	65630.86702
617.331	65649.12639
617.504	65628.58539
617.677	65706.25941
617.85	65660.54418
618.022	65674.25133
618.195	65655.97653
618.368	65592.1029
618.541	65578.4334
618.714	65658.26027
618.887	65646.84335
619.059	65612.61883
619.232	65655.97653
619.405	65498.81755
619.578	65528.36478
619.751	65637.71297
619.923	65614.89925
620.096	65546.56197
620.269	65567.04688
620.441	65617.17984
620.614	65658.26027
620.787	65585.26737
620.96	65598.93999
621.132	65503.36142
621.305	65476.10836
621.477	65532.91305
621.65	65619.4606
621.823	65633.14883
621.995	65528.36478
622.168	65537.46201
622.34	65539.73674
622.513	65551.11297
622.685	65546.56197
622.858	65528.36478
623.03	65587.54571
623.203	65614.89925
623.375	65567.04688
623.548	65608.05852
623.72	65539.73674
623.893	65542.01164
624.065	65564.77009
624.238	65557.94076
624.41	65658.26027
624.582	65496.54588
624.755	65573.87827
624.927	65551.11297
625.1	65544.28672
625.272	65617.17984
625.444	65510.17848
625.617	65423.94081
625.789	65501.0894
625.961	65562.49348
626.133	65498.81755
626.306	65485.19002
626.478	65485.19002
626.65	65469.29888
626.822	65551.11297
626.995	65448.87949
627.167	65460.22192
627.339	65530.63883
627.511	65421.67466
627.683	65460.22192
627.855	65430.74027
628.027	65510.17848
628.2	65444.34369
628.372	65469.29888
628.544	65471.56854
628.716	65469.29888
628.888	65446.61151
629.06	65383.17529
629.232	65546.56197
629.404	65471.56854
629.576	65387.70216
629.748	65487.46085
629.92	65349.24469
630.092	65337.94264
630.264	65435.27408
630.436	65512.45117
630.608	65444.34369
630.78	65439.80855
630.952	65482.91935
631.124	65405.8162
631.295	65428.47362
631.467	65480.64885
631.639	65396.75786
631.811	65476.10836
631.983	65455.68445
632.155	65455.68445
632.326	65451.14764
632.498	65446.61151
632.67	65455.68445
632.842	65489.73185
633.014	65435.27408
633.185	65378.64908
633.357	65467.02939
633.529	65340.20273
633.7	65374.12353
633.872	65489.73185
634.044	65492.00303
634.215	65380.91211
634.387	65455.68445
634.559	65532.91305
634.73	65476.10836
634.902	65523.81718
635.074	65460.22192
635.245	65451.14764
635.417	65473.83836
635.588	65387.70216
635.76	65532.91305
635.931	65519.27027
636.103	65532.91305
636.274	65428.47362
636.446	65480.64885
636.617	65414.87718
636.789	65507.90596
636.96	65501.0894
637.132	65521.54364
637.303	65510.17848
637.474	65542.01164
637.646	65460.22192
637.817	65535.18744
637.989	65487.46085
638.16	65546.56197
638.331	65569.32384
638.503	65433.00709
638.674	65464.76007
638.845	65569.32384
639.017	65480.64885
639.188	65482.91935
639.359	65571.60097
639.53	65557.94076
639.702	65487.46085
639.873	65567.04688
640.044	65530.63883
640.215	65542.01164
640.387	65442.07604
640.558	65423.94081
640.729	65396.75786
640.9	65426.20713
641.071	65437.54123
641.242	65442.07604
641.413	65453.41596
641.585	65498.81755
641.756	65426.20713
641.927	65553.38873
642.098	65478.37852
642.269	65476.10836
642.44	65542.01164
642.611	65469.29888
642.782	65476.10836
642.953	65385.43864
643.124	65428.47362
643.295	65551.11297
643.466	65417.14284
643.637	65480.64885
643.808	65462.49091
643.979	65394.49369
644.15	65367.33643
644.32	65421.67466
644.491	65439.80855
644.662	65587.54571
644.833	65464.76007
645.004	65430.74027
645.175	65473.83836
645.346	65410.34636
645.516	65503.36142
645.687	65455.68445
645.858	65457.9531
646.029	65408.0812
646.199	65489.73185
646.37	65451.14764
646.541	65514.72404
646.712	65387.70216
646.882	65435.27408
647.053	65467.02939
647.224	65462.49091
647.394	65448.87949
647.565	65453.41596
647.736	65492.00303
647.906	65526.0909
648.077	65453.41596
648.248	65523.81718
648.418	65496.54588
648.589	65539.73674
648.759	65480.64885
648.93	65482.91935
649.1	65542.01164
649.271	65410.34636
649.441	65419.40867
649.612	65492.00303
649.782	65417.14284
649.953	65399.0222
650.123	65451.14764
650.294	65392.22968
650.464	65433.00709
650.635	65139.6809
650.805	65455.68445
650.975	65328.90393
651.146	65492.00303
651.316	65446.61151
651.487	65476.10836
651.657	65478.37852
651.827	65410.34636
651.998	65532.91305
652.168	65419.40867
652.338	65482.91935
652.508	65548.83738
652.679	65471.56854
652.849	65392.22968
653.019	65428.47362
653.189	65423.94081
653.36	65437.54123
653.53	65532.91305
653.7	65439.80855
653.87	65553.38873
654.04	65487.46085
654.211	65505.6336
654.381	65410.34636
654.551	65523.81718
654.721	65433.00709
654.891	65507.90596
655.061	65430.74027
655.231	65542.01164
655.401	65555.66466
655.571	65521.54364
655.741	65439.80855
655.911	65487.46085
656.081	65426.20713
656.251	65557.94076
656.421	65453.41596
656.591	65548.83738
656.761	65464.76007
656.931	65589.82422
657.101	65555.66466
657.271	65501.0894
657.441	65478.37852
657.611	65592.1029
657.781	65482.91935
657.951	65526.0909
658.121	65464.76007
658.291	65460.22192
658.46	65567.04688
658.63	65494.27437
658.8	65521.54364
658.97	65489.73185
659.14	65437.54123
659.309	65516.99707
659.479	65471.56854
659.649	65546.56197
659.819	65462.49091
659.988	65582.98921
660.158	65614.89925
660.328	65494.27437
660.497	65557.94076
660.667	65544.28672
660.837	65494.27437
661.006	65473.83836
661.176	65633.14883
661.346	65523.81718
661.515	65564.77009
661.685	65569.32384
661.854	65526.0909
662.024	65553.38873
662.194	65514.72404
662.363	65503.36142
662.533	65555.66466
662.702	65651.40959
662.872	65601.21936
663.041	65492.00303
663.211	65637.71297
663.38	65694.82397
663.55	65557.94076
663.719	65553.38873
663.889	65676.53647
664.058	65633.14883
664.227	65578.4334
664.397	65564.77009
664.566	65562.49348
664.735	65651.40959
664.905	65612.61883
665.074	65612.61883
665.244	65596.66078
665.413	65660.54418
665.582	65573.87827
665.751	65608.05852
665.921	65610.33859
666.09	65619.4606
666.259	65571.60097
666.428	65614.89925
666.598	65619.4606
666.767	65562.49348
666.936	65571.60097
667.105	65551.11297
667.275	65603.49891
667.444	65601.21936
667.613	65507.90596
667.782	65660.54418
667.951	65564.77009
668.12	65592.1029
668.289	65603.49891
668.458	65555.66466
668.628	65658.26027
668.797	65626.30393
668.966	65642.27781
669.135	65523.81718
669.304	65594.38176
669.473	65594.38176
669.642	65621.74154
669.811	65624.02265
669.98	65576.15575
670.149	65553.38873
670.318	65669.68158
670.487	65637.71297
670.656	65582.98921
670.824	65628.58539
670.993	65678.82179
671.162	65580.71122
671.331	65567.04688
671.5	65630.86702
671.669	65651.40959
671.838	65667.39696
672.007	65601.21936
672.175	65617.17984
672.344	65628.58539
672.513	65487.46085
672.682	65662.82826
672.85	65578.4334
673.019	65546.56197
673.188	65521.54364
673.357	65576.15575
673.525	65667.39696
673.694	65667.39696
673.863	65617.17984
674.032	65578.4334
674.2	65644.5605
674.369	65644.5605
674.537	65587.54571
674.706	65683.39296
674.875	65635.43082
675.043	65614.89925
675.212	65601.21936
675.381	65601.21936
675.549	65655.97653
675.718	65674.25133
675.886	65626.30393
676.055	65697.1107
676.223	65669.68158
676.392	65605.77863
676.56	65619.4606
676.729	65630.86702
676.897	65692.53741
677.066	65655.97653
677.234	65653.69298
677.403	65756.62831
677.571	65660.54418
677.739	65651.40959
677.908	65674.25133
678.076	65626.30393
678.244	65639.99531
678.413	65690.25103
678.581	65621.74154
678.75	65676.53647
678.918	65681.10729
679.086	65665.11253
679.254	65758.91987
679.423	65569.32384
679.591	65665.11253
679.759	65660.54418
679.928	65687.96483
680.096	65639.99531
680.264	65674.25133
680.432	65635.43082
680.6	65662.82826
680.769	65614.89925
680.937	65715.41097
681.105	65614.89925
681.273	65612.61883
681.441	65667.39696
681.609	65560.21703
681.777	65667.39696
681.945	65633.14883
682.114	65690.25103
682.282	65642.27781
682.45	65674.25133
682.618	65701.6847
682.786	65758.91987
682.954	65653.69298
683.122	65482.91935
683.29	65580.71122
683.458	65687.96483
683.626	65683.39296
683.794	65653.69298
683.962	65772.67299
684.13	65598.93999
684.298	65713.12281
684.465	65646.84335
684.633	65701.6847
684.801	65715.41097
684.969	65690.25103
685.137	65610.33859
685.305	65710.83483
685.473	65651.40959
685.64	65710.83483
685.808	65788.72652
685.976	65582.98921
686.144	65738.30233
686.312	65569.32384
686.479	65731.43304
686.647	65722.2765
686.815	65681.10729
686.983	65699.39762
687.15	65662.82826
687.318	65697.1107
687.486	65665.11253
687.653	65651.40959
687.821	65703.97197
687.989	65653.69298
688.156	65745.17323
688.324	65719.98781
688.492	65662.82826
688.659	65807.08429
688.827	65635.43082
688.994	65729.14364
689.162	65710.83483
689.329	65603.49891
689.497	65731.43304
689.665	65772.67299
689.832	65660.54418
690	65642.27781
690.167	65740.59245
690.335	65701.6847
690.502	65724.56537
690.669	65660.54418
690.837	65703.97197
691.004	65612.61883
691.172	65610.33859
691.339	65594.38176
691.507	65763.50352
691.674	65729.14364
691.841	65738.30233
692.009	65777.25881
692.176	65692.53741
692.343	65738.30233
692.511	65699.39762
692.678	65706.25941
692.845	65692.53741
693.013	65747.46388
693.18	65658.26027
693.347	65678.82179
693.514	65781.84535
693.682	65681.10729
693.849	65726.85441
694.016	65706.25941
694.183	65637.71297
694.35	65820.86026
694.518	65733.72263
694.685	65736.01239
694.852	65731.43304
695.019	65825.45372
695.186	65694.82397
695.353	65617.17984
695.52	65671.96637
695.687	65667.39696
695.855	65685.67881
696.022	65683.39296
696.189	65729.14364
696.356	65747.46388
696.523	65797.90395
696.69	65614.89925
696.857	65825.45372
697.024	65653.69298
697.191	65745.17323
697.358	65655.97653
697.525	65637.71297
697.692	65687.96483
697.858	65763.50352
698.025	65671.96637
698.192	65676.53647
698.359	65777.25881
698.526	65687.96483
698.693	65694.82397
698.86	65738.30233
699.027	65717.6993
699.193	65784.13889
699.36	65738.30233
699.527	65749.75472
699.694	65772.67299
699.861	65772.67299
700.027	65614.89925
700.194	65660.54418
700.361	65676.53647
700.528	65667.39696
700.694	65722.2765
700.861	65758.91987
701.028	65690.25103
701.195	65690.25103
701.361	65681.10729
701.528	65729.14364
701.694	65671.96637
701.861	65797.90395
702.028	65598.93999
702.194	65658.26027
702.361	65729.14364
702.528	65726.85441
702.694	65719.98781
702.861	65573.87827
703.027	65687.96483
703.194	65745.17323
703.36	65690.25103
703.527	65788.72652
703.693	65635.43082
703.86	65624.02265
704.026	65713.12281
704.193	65864.52769
704.359	65710.83483
704.526	65761.2116
