Data from Sun spf450_Subt2__1__09-55-44-440.txt Node

Date: Tue Sep 23 09:55:44 EDT 2025
User: brett
Spectrometer: USB4F03499
Trigger mode: 4
Integration Time (sec): 1.000000E-1
Scans to average: 1
Electric dark correction enabled: true
Nonlinearity correction enabled: true
Boxcar width: 0
XAxis mode: Wavelengths
Number of Pixels in Spectrum: 3648
>>>>>Begin Spectral Data<<<<<
0	37.09103
0.225	37.09103
0.449	37.09103
0.674	-75.90871
0.898	-9.02371
1.123	-70.84717
1.347	-52.53123
1.572	43.73729
1.796	142.31833
2.021	4.77763
2.245	27.61738
2.469	-34.22543
2.694	-109.80815
2.918	78.06399
3.143	-8.98905
3.367	0.19092
3.591	-20.46525
3.815	4.77537
4.04	264.73375
4.264	437.87358
4.488	441.26755
4.712	302.73751
4.936	377.79813
5.161	424.81023
5.385	369.84503
5.609	280.75195
5.833	359.38324
6.057	414.01207
6.281	314.81303
6.505	451.10838
6.729	384.17787
6.953	512.9765
7.177	364.39479
7.401	303.42446
7.625	368.89222
7.849	367.15696
8.073	466.99936
8.297	441.43271
8.521	383.21557
8.744	374.2661
8.968	528.47258
9.192	535.20419
9.416	499.45161
9.64	480.6279
9.863	467.03462
10.087	414.91726
10.311	403.53768
10.535	407.02283
10.758	393.00448
10.982	507.07997
11.205	339.11149
11.429	398.61763
11.653	402.98945
11.876	406.87125
12.1	423.90476
12.323	526.17522
12.547	489.25847
12.77	534.76164
12.994	371.01499
13.217	444.158
13.441	491.6258
13.664	534.76164
13.887	441.9977
14.111	540.75934
14.334	424.26395
14.557	402.98945
14.781	609.94745
15.004	413.70332
15.227	603.12342
15.451	593.43058
15.674	420.4421
15.897	410.7766
16.12	653.09952
16.343	704.81951
16.567	756.51968
16.79	610.93702
17.013	491.91065
17.236	549.96898
17.459	661.92781
17.682	624.0098
17.905	695.55071
18.128	802.13685
18.351	686.73841
18.574	728.40072
18.797	879.70802
19.02	735.85325
19.243	851.50215
19.466	815.55191
19.689	897.74063
19.911	933.93431
20.134	989.8867
20.357	938.6052
20.58	1003.46108
20.803	1168.55038
21.025	1076.43767
21.248	1130.3605
21.471	1234.16843
21.694	1290.44855
21.916	1289.39506
22.139	1418.20918
22.362	1360.04344
22.584	1546.90952
22.807	1595.33433
23.029	1573.68846
23.252	1677.94331
23.475	1691.32811
23.697	1959.66931
23.92	1922.05164
24.142	2051.6142
24.365	2165.19945
24.587	2099.66054
24.809	2183.51969
25.032	2264.01767
25.254	2361.59921
25.477	2619.62084
25.699	2724.42928
25.921	2819.59939
26.144	2816.50144
26.366	3035.33686
26.588	3252.12905
26.81	3403.86594
27.033	3394.7352
27.255	3425.02748
27.477	3653.99741
27.699	4010.3658
27.921	4084.59991
28.144	4231.56663
28.366	4408.47827
28.588	4680.42751
28.81	4792.16952
29.032	5252.40202
29.254	5338.78375
29.476	5629.01197
29.698	5845.0634
29.92	6140.80207
30.142	6614.82871
30.364	6615.05164
30.586	7086.1036
30.808	7301.93415
31.029	7705.1124
31.251	7994.27475
31.473	8224.25205
31.695	8403.24583
31.917	8941.0412
32.139	8922.44085
32.36	9266.6824
32.582	9665.41567
32.804	9881.92399
33.026	10375.94411
33.247	10598.84588
33.469	11089.20767
33.691	11197.35367
33.912	11845.11743
34.134	12067.89147
34.355	12048.67177
34.577	12713.04925
34.798	12897.29019
35.02	13346.88681
35.242	13075.00645
35.463	14165.55136
35.684	14377.52715
35.906	14455.06433
36.127	15308.16655
36.349	15147.82918
36.57	15991.39783
36.792	16468.47348
37.013	16812.78103
37.234	16814.59294
37.456	17243.04014
37.677	18021.12563
37.898	18326.62466
38.119	18245.87046
38.341	19055.9457
38.562	19045.71616
38.783	19899.34863
39.004	19547.95554
39.225	19976.52126
39.447	21023.31356
39.668	21857.17659
39.889	21612.0257
40.11	22671.72637
40.331	22909.0816
40.552	23686.25736
40.773	23978.72755
40.994	24469.45916
41.215	24985.68954
41.436	25844.81669
41.657	26445.33885
41.878	27117.11549
42.099	27963.63242
42.32	29342.45508
42.54	29917.88267
42.761	30261.6889
42.982	31687.25609
43.203	32652.1975
43.424	33533.15035
43.645	33992.766
43.865	35147.25833
44.086	35157.80928
44.307	36685.77173
44.527	37498.46882
44.748	38241.99088
44.969	39275.80342
45.189	38778.44162
45.41	38850.81245
45.631	41022.06749
45.851	40382.0222
46.072	40854.86936
46.292	40861.30282
46.513	41491.78948
46.733	43233.49301
46.954	43838.16447
47.174	45289.92902
47.395	44282.77238
47.615	45926.676
47.836	47227.58776
48.056	47557.3325
48.276	46867.17176
48.497	46210.26252
48.717	49159.31086
48.937	48476.46144
49.158	50046.83796
49.378	49198.92882
49.598	49914.80835
49.818	51656.0996
50.038	51094.4618
50.259	52243.35013
50.479	52902.66106
50.699	54483.55475
50.919	56619.37067
51.139	57525.47014
51.359	58817.81163
51.579	61311.85702
51.799	59869.96563
52.02	61953.15826
52.24	63556.62471
52.46	65107.64117
52.68	65765.25898
52.899	64653.80501
53.119	65735.43821
53.339	65776.73668
53.559	65726.26874
53.779	65646.15818
53.999	65666.73719
54.219	65602.76053
54.439	65788.21894
54.658	65822.69321
54.878	65723.97683
55.098	65762.96398
55.318	65701.06755
55.538	65673.60006
55.757	65723.97683
55.977	65735.43821
56.197	65664.44993
56.416	65737.73103
56.636	65735.43821
56.855	65758.37454
57.075	65673.60006
57.295	65769.84951
57.514	65811.19719
57.734	65707.93845
57.953	65723.97683
58.173	65714.81096
58.392	65751.49174
58.612	65760.66917
58.831	65765.25898
59.051	65703.35767
59.27	65637.01655
59.489	65719.39353
59.709	65733.14557
59.928	65753.78583
60.147	65737.73103
60.367	65762.96398
60.586	65685.04172
60.805	65744.61057
61.024	65726.26874
61.244	65806.60007
61.463	65740.02403
61.682	65717.10216
61.901	65705.64797
62.12	65762.96398
62.34	65726.26874
62.559	65730.85312
62.778	65607.32572
62.997	65751.49174
63.216	65795.11049
63.435	65788.21894
63.654	65637.01655
63.873	65749.19784
64.092	65735.43821
64.311	65675.88803
64.53	65714.81096
64.749	65733.14557
64.968	65721.68509
65.187	65818.09425
65.405	65735.43821
65.624	65730.85312
65.843	65710.22911
66.062	65719.39353
66.281	65682.75303
66.499	65806.60007
66.718	65788.21894
66.937	65705.64797
67.156	65721.68509
67.374	65760.66917
67.593	65623.3094
67.812	65730.85312
68.03	65742.31721
68.249	65790.51594
68.467	65760.66917
68.686	65694.19827
68.905	65682.75303
69.123	65852.60448
69.342	65726.26874
69.56	65756.08009
69.779	65829.59304
69.997	65703.35767
70.216	65744.61057
70.434	65719.39353
70.652	65689.61964
70.871	65735.43821
71.089	65762.96398
71.307	65804.30179
71.526	65712.51994
71.744	65769.84951
71.962	65762.96398
72.181	65767.55415
72.399	65760.66917
72.617	65717.10216
72.835	65701.06755
73.054	65769.84951
73.272	65746.90411
73.49	65758.37454
73.708	65811.19719
73.926	65802.00369
74.144	65797.40804
74.362	65712.51994
74.58	65746.90411
74.798	65744.61057
75.016	65728.56084
75.234	65760.66917
75.452	65735.43821
75.67	65698.77761
75.888	65772.14505
76.106	65673.60006
76.324	65806.60007
76.542	65811.19719
76.76	65730.85312
76.978	65742.31721
77.196	65774.44077
77.413	65701.06755
77.631	65678.17619
77.849	65785.92212
78.067	65696.48785
78.284	65694.19827
78.502	65751.49174
78.72	65751.49174
78.938	65806.60007
79.155	65788.21894
79.373	65742.31721
79.59	65788.21894
79.808	65751.49174
80.026	65776.73668
80.243	65760.66917
80.461	65650.73006
80.678	65634.73159
80.896	65694.19827
81.113	65723.97683
81.331	65756.08009
81.548	65550.31093
81.766	65689.61964
81.983	65712.51994
82.2	65762.96398
82.418	65818.09425
82.635	65682.75303
82.852	65586.78787
83.07	65733.14557
83.287	65744.61057
83.504	65710.22911
83.722	65637.01655
83.939	65726.26874
84.156	65630.16219
84.373	65783.62549
84.591	65742.31721
84.808	65728.56084
85.025	65689.61964
85.242	65762.96398
85.459	65721.68509
85.676	65733.14557
85.893	65799.70577
86.11	65714.81096
86.327	65717.10216
86.544	65728.56084
86.761	65758.37454
86.978	65689.61964
87.195	65723.97683
87.412	65834.19384
87.629	65779.03276
87.846	65740.02403
88.063	65655.30264
88.28	65733.14557
88.497	65742.31721
88.713	65772.14505
88.93	65797.40804
89.147	65758.37454
89.364	65698.77761
89.58	65726.26874
89.797	65698.77761
90.014	65728.56084
90.231	65675.88803
90.447	65753.78583
90.664	65698.77761
90.881	65707.93845
91.097	65662.16284
91.314	65669.02464
91.53	65746.90411
91.747	65717.10216
91.963	65781.32903
92.18	65733.14557
92.396	65733.14557
92.613	65719.39353
92.829	65818.09425
93.046	65802.00369
93.262	65792.81312
93.479	65701.06755
93.695	65707.93845
93.911	65742.31721
94.128	65792.81312
94.344	65655.30264
94.56	65694.19827
94.777	65841.09644
94.993	65772.14505
95.209	65666.73719
95.426	65513.87819
95.642	65795.11049
95.858	65756.08009
96.074	65740.02403
96.29	65806.60007
96.506	65735.43821
96.723	65717.10216
96.939	65788.21894
97.155	65776.73668
97.371	65726.26874
97.587	65758.37454
97.803	65760.66917
98.019	65751.49174
98.235	65694.19827
98.451	65783.62549
98.667	65637.01655
98.883	65774.44077
99.099	65806.60007
99.315	65779.03276
99.53	65719.39353
99.746	65751.49174
99.962	65785.92212
100.178	65742.31721
100.394	65744.61057
100.61	65811.19719
100.825	65696.48785
101.041	65774.44077
101.257	65721.68509
101.473	65726.26874
101.688	65707.93845
101.904	65765.25898
102.12	65733.14557
102.335	65719.39353
102.551	65765.25898
102.766	65673.60006
102.982	65751.49174
103.198	65772.14505
103.413	65730.85312
103.629	65762.96398
103.844	65756.08009
104.06	65744.61057
104.275	65691.90886
104.49	65710.22911
104.706	65783.62549
104.921	65147.39836
105.137	65730.85312
105.352	65664.44993
105.567	65744.61057
105.783	65721.68509
105.998	65714.81096
106.213	65696.48785
106.429	65781.32903
106.644	65765.25898
106.859	65723.97683
107.074	65598.19604
107.29	65783.62549
107.505	65749.19784
107.72	65678.17619
107.935	65682.75303
108.15	65714.81096
108.365	65795.11049
108.58	65691.90886
108.795	65685.04172
109.01	65691.90886
109.226	65815.79505
109.441	65577.66447
109.656	65795.11049
109.871	65627.87775
110.085	65696.48785
110.3	65726.26874
110.515	65804.30179
110.73	65641.58701
110.945	65753.78583
111.16	65696.48785
111.375	65701.06755
111.59	65749.19784
111.804	65719.39353
112.019	65721.68509
112.234	65758.37454
112.449	65696.48785
112.663	65735.43821
112.878	65758.37454
113.093	65737.73103
113.308	65650.73006
113.522	65735.43821
113.737	65857.20899
113.951	65705.64797
114.166	65737.73103
114.381	65726.26874
114.595	65749.19784
114.81	65719.39353
115.024	65733.14557
115.239	65705.64797
115.453	65767.55415
115.668	65751.49174
115.882	65698.77761
116.097	65751.49174
116.311	65834.19384
116.525	65726.26874
116.74	65841.09644
116.954	65689.61964
117.169	65737.73103
117.383	65719.39353
117.597	65675.88803
117.811	65735.43821
118.026	65650.73006
118.24	65687.33059
118.454	65740.02403
118.668	65742.31721
118.883	65742.31721
119.097	65723.97683
119.311	65723.97683
119.525	65726.26874
119.739	65730.85312
119.953	65751.49174
120.167	65609.60857
120.381	65760.66917
120.595	65726.26874
120.809	65767.55415
121.023	65712.51994
121.237	65751.49174
121.451	65760.66917
121.665	65756.08009
121.879	65723.97683
122.093	65659.87593
122.307	65831.89335
122.521	65772.14505
122.735	65659.87593
122.949	65756.08009
123.163	65811.19719
123.376	65694.19827
123.59	65673.60006
123.804	65730.85312
124.018	65767.55415
124.231	65779.03276
124.445	65802.00369
124.659	65657.58919
124.872	65639.3017
125.086	65735.43821
125.3	65730.85312
125.513	65712.51994
125.727	65767.55415
125.94	65714.81096
126.154	65735.43821
126.368	65783.62549
126.581	65758.37454
126.795	65767.55415
127.008	65762.96398
127.222	65795.11049
127.435	65783.62549
127.648	65781.32903
127.862	65710.22911
128.075	65774.44077
128.289	65691.90886
128.502	65785.92212
128.715	65721.68509
128.929	65836.49452
129.142	65762.96398
129.355	65733.14557
129.568	65671.31226
129.782	65710.22911
129.995	65655.30264
130.208	65756.08009
130.421	65776.73668
130.634	65769.84951
130.848	65691.90886
131.061	65655.30264
131.274	65696.48785
131.487	65795.11049
131.7	65767.55415
131.913	65694.19827
132.126	65740.02403
132.339	65643.87251
132.552	65554.86812
132.765	65662.16284
132.978	65740.02403
133.191	65762.96398
133.404	65698.77761
133.617	65758.37454
133.83	65710.22911
134.043	65788.21894
134.255	65813.49603
134.468	65712.51994
134.681	65808.89854
134.894	65850.3025
135.107	65779.03276
135.319	65701.06755
135.532	65728.56084
135.745	65694.19827
135.958	65746.90411
136.17	65820.39364
136.383	65723.97683
136.596	65772.14505
136.808	65744.61057
137.021	65682.75303
137.233	65774.44077
137.446	65717.10216
137.659	65756.08009
137.871	65607.32572
138.084	65746.90411
138.296	65707.93845
138.509	65742.31721
138.721	65776.73668
138.934	65723.97683
139.146	65710.22911
139.358	65769.84951
139.571	65648.44403
139.783	65653.01626
139.996	65728.56084
140.208	65673.60006
140.42	65680.46452
140.632	65707.93845
140.845	65760.66917
141.057	65820.39364
141.269	65767.55415
141.481	65742.31721
141.694	65788.21894
141.906	65721.68509
142.118	65838.79539
142.33	65714.81096
142.542	65795.11049
142.754	65703.35767
142.967	65827.29291
143.179	65781.32903
143.391	65669.02464
143.603	65760.66917
143.815	65657.58919
144.027	65737.73103
144.239	65630.16219
144.451	65728.56084
144.663	65740.02403
144.875	65664.44993
145.086	65632.4468
145.298	65685.04172
145.51	65762.96398
145.722	65666.73719
145.934	65756.08009
146.146	65760.66917
146.358	65744.61057
146.569	65795.11049
146.781	65710.22911
146.993	65792.81312
147.205	65646.15818
147.416	65746.90411
147.628	65737.73103
147.84	65696.48785
148.051	65744.61057
148.263	65710.22911
148.475	65783.62549
148.686	65749.19784
148.898	65673.60006
149.109	65657.58919
149.321	65785.92212
149.532	65664.44993
149.744	65721.68509
149.955	65698.77761
150.167	65753.78583
150.378	65740.02403
150.59	65769.84951
150.801	65808.89854
151.013	65795.11049
151.224	65657.58919
151.435	65744.61057
151.647	65657.58919
151.858	65712.51994
152.069	65744.61057
152.281	65746.90411
152.492	65717.10216
152.703	65751.49174
152.914	65616.4582
153.126	65712.51994
153.337	65717.10216
153.548	65813.49603
153.759	65707.93845
153.97	65792.81312
154.181	65776.73668
154.392	65687.33059
154.604	65804.30179
154.815	65767.55415
155.026	65701.06755
155.237	65744.61057
155.448	65637.01655
155.659	65719.39353
155.87	65726.26874
156.081	65705.64797
156.292	65774.44077
156.502	65806.60007
156.713	65703.35767
156.924	65680.46452
157.135	65723.97683
157.346	65740.02403
157.557	65703.35767
157.768	65769.84951
157.978	65811.19719
158.189	65714.81096
158.4	65776.73668
158.611	65714.81096
158.821	65664.44993
159.032	65753.78583
159.243	65685.04172
159.453	65733.14557
159.664	65733.14557
159.875	65694.19827
160.085	65769.84951
160.296	65694.19827
160.507	65753.78583
160.717	65779.03276
160.928	65691.90886
161.138	65896.37749
161.349	65751.49174
161.559	65818.09425
161.77	65749.19784
161.98	65772.14505
162.19	65698.77761
162.401	65753.78583
162.611	65687.33059
162.822	65760.66917
163.032	65753.78583
163.242	65767.55415
163.453	65687.33059
163.663	65790.51594
163.873	65714.81096
164.084	65776.73668
164.294	65788.21894
164.504	65737.73103
164.714	65719.39353
164.924	65721.68509
165.135	65772.14505
165.345	65691.90886
165.555	65730.85312
165.765	65678.17619
165.975	65687.33059
166.185	65735.43821
166.395	65762.96398
166.605	65804.30179
166.815	65792.81312
167.025	65751.49174
167.235	65653.01626
167.445	65850.3025
167.655	65714.81096
167.865	65744.61057
168.075	65728.56084
168.285	65744.61057
168.495	65726.26874
168.705	65662.16284
168.915	65637.01655
169.124	65701.06755
169.334	65703.35767
169.544	65707.93845
169.754	65744.61057
169.964	65698.77761
170.173	65673.60006
170.383	65719.39353
170.593	65726.26874
170.802	65682.75303
171.012	65785.92212
171.222	65749.19784
171.431	65790.51594
171.641	65756.08009
171.851	65811.19719
172.06	65769.84951
172.27	65772.14505
172.479	65705.64797
172.689	65767.55415
172.898	65714.81096
173.108	65758.37454
173.317	65691.90886
173.527	65797.40804
173.736	65802.00369
173.945	65728.56084
174.155	65689.61964
174.364	65691.90886
174.574	65728.56084
174.783	65740.02403
174.992	65678.17619
175.202	65737.73103
175.411	65680.46452
175.62	65767.55415
175.829	65781.32903
176.039	65717.10216
176.248	65687.33059
176.457	65740.02403
176.666	65655.30264
176.875	65772.14505
177.084	65701.06755
177.294	65779.03276
177.503	65792.81312
177.712	65650.73006
177.921	65774.44077
178.13	65742.31721
178.339	65829.59304
178.548	65762.96398
178.757	65730.85312
178.966	65691.90886
179.175	65705.64797
179.384	65749.19784
179.593	65726.26874
179.802	65804.30179
180.011	65730.85312
180.219	65751.49174
180.428	65721.68509
180.637	65721.68509
180.846	65691.90886
181.055	65723.97683
181.263	65749.19784
181.472	65646.15818
181.681	65779.03276
181.89	65714.81096
182.098	65648.44403
182.307	65756.08009
182.516	65717.10216
182.724	65733.14557
182.933	65696.48785
183.142	65820.39364
183.35	65717.10216
183.559	65723.97683
183.767	65740.02403
183.976	65769.84951
184.184	65783.62549
184.393	65710.22911
184.601	65769.84951
184.81	65650.73006
185.018	65774.44077
185.227	65712.51994
185.435	65792.81312
185.644	65696.48785
185.852	65838.79539
186.06	65694.19827
186.269	65694.19827
186.477	65689.61964
186.685	65737.73103
186.894	65648.44403
187.102	65733.14557
187.31	65664.44993
187.518	65737.73103
187.727	65822.69321
187.935	65799.70577
188.143	65740.02403
188.351	65707.93845
188.559	65799.70577
188.768	65662.16284
188.976	65682.75303
189.184	65698.77761
189.392	65696.48785
189.6	65705.64797
189.808	65625.59349
190.016	65767.55415
190.224	65756.08009
190.432	57486.03791
190.64	55651.94225
190.848	13455.46411
191.056	13272.19787
191.264	13424.10368
191.472	13336.32884
191.679	13649.00133
191.887	13595.70368
192.095	13702.60932
192.303	13544.90256
192.511	13762.8523
192.719	13671.16798
192.926	13714.94229
193.134	13418.95261
193.342	13710.92931
193.55	13561.1222
193.757	13727.80397
193.965	13402.18227
194.173	13517.3072
194.38	13636.95724
194.588	13470.43944
194.796	13467.94055
195.003	13515.40849
195.211	13553.16822
195.418	13399.61753
195.626	13619.58934
195.833	13699.64801
196.041	13397.83088
196.248	13554.24266
196.456	13515.13797
196.663	13405.09843
196.871	13509.40432
197.078	13475.36837
197.285	13522.78177
197.493	13667.08211
197.7	13598.62457
197.908	13480.60182
198.115	13497.65379
198.322	13496.09442
198.529	13601.53238
198.737	13458.49712
198.944	13533.88721
199.151	13886.04494
199.358	13536.74718
199.566	13471.66199
199.773	13377.91943
199.98	13663.76887
200.187	13701.66952
200.394	13515.62729
200.601	13458.93833
200.809	13918.00781
201.016	13738.92394
201.223	13746.18112
201.43	13594.5291
201.637	13805.5156
201.844	13802.03193
202.051	13736.31194
202.258	13394.38515
202.465	13538.56362
202.672	13654.17654
202.878	13810.28596
203.085	13801.47867
203.292	13565.90173
203.499	13574.47358
203.706	13699.27298
203.913	13487.10259
204.12	13914.36735
204.326	14013.08298
204.533	13854.99254
204.74	13746.96832
204.947	13869.74971
205.153	13804.50463
205.36	14155.90838
205.567	14283.72975
205.773	14036.55098
205.98	13860.4271
206.187	14037.21418
206.393	13965.45404
206.6	13899.56106
206.806	14098.3622
207.013	14121.6908
207.22	14112.39948
207.426	14089.1731
207.633	13977.02074
207.839	13878.32017
208.046	14081.97692
208.252	14045.9011
208.458	13889.89654
208.665	13947.66419
208.871	14039.13823
209.078	14145.53713
209.284	14265.3982
209.49	14315.24009
209.697	14040.88183
209.903	14326.26992
210.109	13908.18756
210.316	14124.38279
210.522	14309.63945
210.728	14209.34655
210.934	14433.14962
211.14	14174.14844
211.347	14316.66074
211.553	14468.55571
211.759	14230.90118
211.965	14346.68094
212.171	13985.86929
212.377	14341.30181
212.583	14360.70729
212.789	14227.75416
212.996	14147.01486
213.202	14175.2716
213.408	14525.53746
213.614	14368.78677
213.82	14194.80502
214.025	14215.08657
214.231	14103.5161
214.437	14464.06352
214.643	14136.77483
214.849	14340.23663
215.055	14141.11723
215.261	14121.75671
215.467	14509.64689
215.672	14389.9927
215.878	14213.78612
216.084	14385.47455
216.29	14374.30223
216.496	14219.99681
216.701	14051.41811
216.907	14323.14043
217.113	14485.67619
217.318	14400.83543
217.524	14331.30377
217.73	14346.82269
217.935	14080.43861
218.141	14227.64728
218.346	14110.66676
218.552	14381.07042
218.758	14431.79591
218.963	14177.96967
219.169	14132.60764
219.374	14309.66774
219.58	14055.2176
219.785	14469.67583
219.991	14250.94394
220.196	14210.75235
220.401	14368.3028
220.607	14631.41275
220.812	14271.97924
221.017	14276.42281
221.223	14151.03756
221.428	14315.72763
221.633	14172.71464
221.839	14285.43109
222.044	14268.33496
222.249	14587.35563
222.454	14126.00679
222.66	14469.63655
222.865	14244.82859
223.07	14201.35876
223.275	14264.03217
223.48	14336.98367
223.686	14201.69383
223.891	14160.8901
224.096	14396.33049
224.301	14253.43599
224.506	14342.50672
224.711	14341.42686
224.916	14369.12784
225.121	14045.19532
225.326	14113.57013
225.531	14288.53028
225.736	14479.94894
225.941	14210.88147
226.146	14180.57928
226.351	13928.67728
226.555	14051.56565
226.76	14127.75502
226.965	14111.87178
227.17	13977.7435
227.375	14125.87322
227.58	14107.7878
227.784	14109.70733
227.989	14066.17692
228.194	14185.89851
228.399	14177.42858
228.603	14012.72992
228.808	14148.99908
229.013	14140.40267
229.217	14071.91656
229.422	13959.12864
229.627	14148.26955
229.831	13922.59473
230.036	13974.96195
230.24	14014.563
230.445	13852.35215
230.649	13984.27775
230.854	14100.29859
231.058	14113.0202
231.263	13895.6173
231.467	14063.40928
231.672	14140.74062
231.876	13985.09658
232.081	14011.43611
232.285	13989.90737
232.489	14215.79983
232.694	13963.523
232.898	14160.86616
233.102	13822.62517
233.307	13812.68134
233.511	13884.05414
233.715	13957.06153
233.919	13889.75739
234.124	14171.95905
234.328	13869.84453
234.532	13869.4765
234.736	13866.8789
234.94	14116.33099
235.145	14086.97966
235.349	13918.03919
235.553	13884.84344
235.757	13885.90206
235.961	14199.39738
236.165	14206.64468
236.369	14020.86041
236.573	13938.34982
236.777	13850.9555
236.981	14233.85277
237.185	14074.85647
237.389	14007.75254
237.593	13948.75593
237.797	14098.67201
238.001	14146.59624
238.205	14168.68539
238.409	14146.97982
238.612	13921.40533
238.816	13827.52081
239.02	14258.24617
239.224	13957.00485
239.428	13890.43787
239.631	13957.75876
239.835	14052.77093
240.039	14040.15697
240.243	14397.71792
240.446	14414.97647
240.65	14048.23713
240.854	14367.25662
241.057	13986.68311
241.261	14187.55851
241.464	14024.49688
241.668	13874.41454
241.872	14179.8405
242.075	14047.96
242.279	14038.51953
242.482	14228.02988
242.686	14257.22069
242.889	14096.92172
243.093	14173.78253
243.296	14031.09009
243.499	14035.84543
243.703	14058.32894
243.906	14075.59583
244.11	13717.65115
244.313	13871.11854
244.516	13813.60917
244.72	13734.3181
244.923	13819.49606
245.126	13463.8852
245.33	13353.21261
245.533	13673.06511
245.736	13585.53622
245.939	13610.10568
246.142	13469.04135
246.346	13557.55541
246.549	13183.86358
246.752	13487.48646
246.955	13343.48445
247.158	13271.9666
247.361	13227.03103
247.564	13078.69442
247.767	13001.20958
247.971	13073.54033
248.174	12880.11978
248.377	13144.32843
248.58	13008.39918
248.783	12909.40765
248.985	12890.56751
249.188	12960.79374
249.391	12904.59298
249.594	12793.22391
249.797	12797.04765
250	12821.98543
250.203	13067.40646
250.406	12763.7335
250.609	12748.93754
250.811	12899.38975
251.014	12552.60009
251.217	12641.1908
251.42	12770.27612
251.622	12724.13092
251.825	12536.08985
252.028	12558.64782
252.231	12678.15066
252.433	12871.37388
252.636	12616.46233
252.838	12811.28346
253.041	12761.23842
253.244	13114.186
253.446	12932.77143
253.649	12832.17445
253.851	13062.94471
254.054	12830.27328
254.256	12757.33285
254.459	13157.53997
254.661	12799.7317
254.864	12843.42377
255.066	13035.04893
255.269	13023.94597
255.471	13100.50171
255.673	13203.48693
255.876	13411.72303
256.078	13318.36828
256.281	13132.12666
256.483	13368.0588
256.685	13223.41462
256.887	13300.38258
257.09	13414.28841
257.292	13258.60651
257.494	13344.7087
257.696	13501.13703
257.899	13333.24698
258.101	13417.20563
258.303	13284.61743
258.505	13324.78314
258.707	13282.40981
258.909	13778.08779
259.111	13512.92901
259.314	13439.97258
259.516	13518.66184
259.718	13540.5621
259.92	13608.55465
260.122	13751.10562
260.324	13684.13903
260.526	13842.92865
260.728	13727.35883
260.93	13929.06717
261.131	13898.71701
261.333	13956.27795
261.535	13697.52922
261.737	14112.65305
261.939	13764.73806
262.141	13922.51086
262.343	14214.18154
262.544	13875.10095
262.746	14032.5793
262.948	14012.17388
263.15	13806.24888
263.352	14040.113
263.553	14066.40549
263.755	13969.7781
263.957	14144.5854
264.158	14102.44019
264.36	14109.19146
264.562	14242.1876
264.763	14347.46146
264.965	14214.05061
265.166	14240.51481
265.368	14101.90948
265.569	14479.94894
265.771	14313.76975
265.972	14239.49515
266.174	14429.44879
266.375	14542.94888
266.577	14272.65652
266.778	14337.52398
266.98	14597.6085
267.181	14440.01063
267.383	14571.78995
267.584	14374.30766
267.785	14446.90871
267.987	14259.51532
268.188	14529.92364
268.389	14330.38445
268.591	14737.46205
268.792	14448.28929
268.993	14448.89421
269.194	14457.4537
269.396	14480.95816
269.597	14416.4496
269.798	14474.98965
269.999	14499.00292
270.2	14502.82826
270.401	14312.75542
270.603	14724.41304
270.804	14578.84459
271.005	14732.67484
271.206	14431.95012
271.407	14463.03524
271.608	14574.85105
271.809	14416.33559
272.01	14713.71565
272.211	14719.00281
272.412	14964.33104
272.613	15121.21681
272.814	15026.26989
273.015	15120.01215
273.216	15433.86152
273.416	15679.65658
273.617	15242.00338
273.818	15426.94984
274.019	15357.24196
274.22	15516.10144
274.421	15812.92513
274.621	15744.39618
274.822	15799.02909
275.023	16109.20284
275.224	15812.51208
275.424	16200.74619
275.625	16125.6761
275.826	16080.72001
276.026	16071.69809
276.227	16168.56553
276.428	16134.60878
276.628	16480.03514
276.829	16022.7501
277.029	16285.97917
277.23	16281.27269
277.43	16153.09301
277.631	16413.31449
277.831	16470.27512
278.032	16615.36677
278.232	16565.40741
278.433	16589.568
278.633	16253.09058
278.834	16618.19085
279.034	16786.14221
279.234	16819.19588
279.435	17040.11646
279.635	17315.37398
279.835	17355.04191
280.036	17190.74649
280.236	17632.5984
280.436	17716.27904
280.637	17518.44287
280.837	17707.50612
281.037	17823.11946
281.237	17695.36677
281.438	17735.48886
281.638	17994.11098
281.838	17693.44061
282.038	17792.80032
282.238	17968.61346
282.438	18344.96649
282.638	18188.4819
282.838	18119.60424
283.038	18300.96411
283.239	18112.98666
283.439	18177.80969
283.639	18280.49428
283.839	18496.27603
284.039	18670.03591
284.238	18715.54368
284.438	18842.51756
284.638	19180.16303
284.838	19025.23332
285.038	19206.19875
285.238	19539.8661
285.438	19417.24355
285.638	19609.93348
285.838	19909.07809
286.037	19805.63506
286.237	20260.99028
286.437	20164.24333
286.637	20482.70341
286.836	20458.05231
287.036	20933.40355
287.236	20830.16932
287.436	21018.97276
287.635	21249.55647
287.835	21114.35586
288.034	21314.1478
288.234	21281.29576
288.434	21646.61369
288.633	21819.56578
288.833	21847.88853
289.032	22480.80734
289.232	22988.93542
289.431	23111.04899
289.631	23854.08038
289.83	24679.24459
290.03	25685.43257
290.229	26541.89625
290.429	28086.86973
290.628	28832.7824
290.828	30002.38526
291.027	30838.02149
291.226	31890.42698
291.426	32780.06244
291.625	32919.27674
291.824	33967.3635
292.024	34369.12756
292.223	34626.83799
292.422	35236.01174
292.621	35038.83492
292.821	35922.6417
293.02	36656.72591
293.219	36258.61288
293.418	36855.79935
293.617	36992.39106
293.817	36939.48854
294.016	37041.8343
294.215	37506.54809
294.414	37634.33662
294.613	38147.49775
294.812	38051.19806
295.011	38468.83828
295.21	38032.4009
295.409	39063.66407
295.608	38836.86779
295.807	39668.44676
296.006	39548.3432
296.205	39462.68411
296.404	39779.03645
296.603	40658.02
296.802	40900.54998
297.001	41887.02189
297.2	42970.54839
297.398	44144.87132
297.597	44879.38484
297.796	45886.9485
297.995	47355.44866
298.194	48293.89761
298.392	48757.04893
298.591	49754.25023
298.79	49229.45192
298.988	49195.17863
299.187	49207.60391
299.386	49282.02725
299.585	49391.87497
299.783	50315.99456
299.982	49861.35472
300.18	49793.59107
300.379	50383.77717
300.578	50294.24386
300.776	51044.34516
300.975	51325.13893
301.173	51394.42556
301.372	52095.51394
301.57	52301.01301
301.769	53239.25229
301.967	53793.50552
302.166	54238.55399
302.364	55961.1426
302.562	55845.05217
302.761	57038.72487
302.959	58463.45636
303.157	59439.45627
303.356	60199.60864
303.554	61787.91691
303.752	62853.9774
303.951	64331.14249
304.149	65625.59349
304.347	65719.39353
304.546	65689.61964
304.744	65726.26874
304.942	65710.22911
305.14	65779.03276
305.338	65804.30179
305.536	65756.08009
305.735	65758.37454
305.933	65765.25898
306.131	65774.44077
306.329	65687.33059
306.527	65804.30179
306.725	65751.49174
306.923	65698.77761
307.121	65641.58701
307.319	65776.73668
307.517	65779.03276
307.715	65728.56084
307.913	65618.74176
308.111	65705.64797
308.309	65721.68509
308.507	65753.78583
308.705	65742.31721
308.903	65797.40804
309.1	65678.17619
309.298	65682.75303
309.496	65723.97683
309.694	65760.66917
309.892	65785.92212
310.089	65792.81312
310.287	65742.31721
310.485	65772.14505
310.683	65728.56084
310.88	65746.90411
311.078	65753.78583
311.276	65689.61964
311.473	65740.02403
311.671	65730.85312
311.869	65687.33059
312.066	65737.73103
312.264	65735.43821
312.461	65657.58919
312.659	65678.17619
312.856	65689.61964
313.054	65767.55415
313.251	65762.96398
313.449	65675.88803
313.646	65744.61057
313.844	65788.21894
314.041	65744.61057
314.239	65673.60006
314.436	65664.44993
314.634	65632.4468
314.831	65689.61964
315.028	65811.19719
315.226	65744.61057
315.423	65673.60006
315.62	65779.03276
315.817	65726.26874
316.015	65618.74176
316.212	65774.44077
316.409	65694.19827
316.606	65710.22911
316.804	65756.08009
317.001	65790.51594
317.198	65691.90886
317.395	65691.90886
317.592	65691.90886
317.789	65742.31721
317.987	65719.39353
318.184	65772.14505
318.381	65808.89854
318.578	65694.19827
318.775	65804.30179
318.972	65799.70577
319.169	65797.40804
319.366	65689.61964
319.563	65726.26874
319.76	65765.25898
319.957	65756.08009
320.154	65769.84951
320.351	65687.33059
320.547	65710.22911
320.744	65749.19784
320.941	65627.87775
321.138	65742.31721
321.335	65728.56084
321.532	65776.73668
321.728	65696.48785
321.925	65795.11049
322.122	65616.4582
322.319	65843.39768
322.515	65687.33059
322.712	65701.06755
322.909	65813.49603
323.105	65818.09425
323.302	65678.17619
323.499	65657.58919
323.695	65705.64797
323.892	65735.43821
324.089	65691.90886
324.285	65758.37454
324.482	65767.55415
324.678	65818.09425
324.875	65772.14505
325.071	65721.68509
325.268	65726.26874
325.464	65751.49174
325.661	65730.85312
325.857	65744.61057
326.054	65779.03276
326.25	65705.64797
326.446	65703.35767
326.643	65723.97683
326.839	65746.90411
327.035	65827.29291
327.232	65678.17619
327.428	65822.69321
327.624	65815.79505
327.821	65733.14557
328.017	65792.81312
328.213	65769.84951
328.409	65733.14557
328.606	65712.51994
328.802	65714.81096
328.998	65749.19784
329.194	65811.19719
329.39	65689.61964
329.586	65733.14557
329.783	65694.19827
329.979	65721.68509
330.175	65751.49174
330.371	65733.14557
330.567	65749.19784
330.763	65721.68509
330.959	65785.92212
331.155	65758.37454
331.351	65767.55415
331.547	65703.35767
331.743	65843.39768
331.939	65740.02403
332.135	65767.55415
332.33	65666.73719
332.526	65730.85312
332.722	65714.81096
332.918	65682.75303
333.114	65785.92212
333.31	65630.16219
333.506	65657.58919
333.701	65735.43821
333.897	65845.6991
334.093	65691.90886
334.289	65797.40804
334.484	65632.4468
334.68	65648.44403
334.876	65675.88803
335.071	65742.31721
335.267	65671.31226
335.463	65753.78583
335.658	65751.49174
335.854	65861.81425
336.049	65737.73103
336.245	65767.55415
336.441	65762.96398
336.636	65714.81096
336.832	65696.48785
337.027	65614.17482
337.223	65802.00369
337.418	65659.87593
337.613	65792.81312
337.809	65710.22911
338.004	65785.92212
338.2	65728.56084
338.395	65779.03276
338.591	65685.04172
338.786	65792.81312
338.981	65788.21894
339.177	65797.40804
339.372	65723.97683
339.567	65664.44993
339.762	65696.48785
339.958	65864.11716
340.153	65822.69321
340.348	65194.66551
340.543	65744.61057
340.739	65788.21894
340.934	65758.37454
341.129	65705.64797
341.324	65705.64797
341.519	65813.49603
341.714	65877.93853
341.909	65792.81312
342.104	65733.14557
342.299	65742.31721
342.495	65765.25898
342.69	65783.62549
342.885	65769.84951
343.08	65484.30887
343.275	65650.73006
343.469	65753.78583
343.664	65698.77761
343.859	65742.31721
344.054	65804.30179
344.249	65785.92212
344.444	65730.85312
344.639	65765.25898
344.834	65790.51594
345.029	65737.73103
345.223	65712.51994
345.418	65792.81312
345.613	65723.97683
345.808	65742.31721
346.003	65746.90411
346.197	65742.31721
346.392	65726.26874
346.587	65630.16219
346.781	65756.08009
346.976	65714.81096
347.171	65659.87593
347.365	65765.25898
347.56	65762.96398
347.755	65685.04172
347.949	65760.66917
348.144	65790.51594
348.338	65728.56084
348.533	65723.97683
348.727	65774.44077
348.922	65691.90886
349.116	65806.60007
349.311	65735.43821
349.505	65806.60007
349.7	65790.51594
349.894	65779.03276
350.089	65714.81096
350.283	65749.19784
350.477	65733.14557
350.672	65751.49174
350.866	65673.60006
351.06	65728.56084
351.255	65733.14557
351.449	65737.73103
351.643	65737.73103
351.837	65694.19827
352.032	65834.19384
352.226	65783.62549
352.42	65788.21894
352.614	65671.31226
352.809	65774.44077
353.003	65730.85312
353.197	65717.10216
353.391	65753.78583
353.585	65719.39353
353.779	65815.79505
353.973	65671.31226
354.167	65707.93845
354.361	65795.11049
354.555	65682.75303
354.749	65751.49174
354.943	65774.44077
355.137	65710.22911
355.331	65758.37454
355.525	65772.14505
355.719	65710.22911
355.913	65749.19784
356.107	65721.68509
356.301	65751.49174
356.495	65746.90411
356.689	65737.73103
356.883	65710.22911
357.076	65806.60007
357.27	65675.88803
357.464	65772.14505
357.658	65673.60006
357.852	65744.61057
358.045	65712.51994
358.239	65785.92212
358.433	65760.66917
358.626	65772.14505
358.82	65744.61057
359.014	65723.97683
359.207	65733.14557
359.401	65824.99297
359.595	65712.51994
359.788	65765.25898
359.982	65737.73103
360.175	65703.35767
360.369	65760.66917
360.563	65733.14557
360.756	65744.61057
360.95	65721.68509
361.143	65831.89335
361.336	65882.54715
361.53	65788.21894
361.723	65774.44077
361.917	65717.10216
362.11	65776.73668
362.304	65751.49174
362.497	65742.31721
362.69	65616.4582
362.884	65726.26874
363.077	65765.25898
363.27	65758.37454
363.464	65733.14557
363.657	65774.44077
363.85	65691.90886
364.043	65760.66917
364.237	65733.14557
364.43	65705.64797
364.623	65701.06755
364.816	65790.51594
365.009	65680.46452
365.202	65765.25898
365.396	65664.44993
365.589	65726.26874
365.782	65726.26874
365.975	65806.60007
366.168	65696.48785
366.361	65659.87593
366.554	65742.31721
366.747	65774.44077
366.94	65707.93845
367.133	65746.90411
367.326	65758.37454
367.519	65760.66917
367.712	65868.72354
367.905	65756.08009
368.098	65781.32903
368.291	65639.3017
368.484	65742.31721
368.676	65712.51994
368.869	65813.49603
369.062	65753.78583
369.255	65737.73103
369.448	65701.06755
369.64	65726.26874
369.833	65765.25898
370.026	65691.90886
370.219	65808.89854
370.411	65637.01655
370.604	65822.69321
370.797	65726.26874
370.989	65698.77761
371.182	65815.79505
371.375	65687.33059
371.567	65717.10216
371.76	65749.19784
371.952	65818.09425
372.145	65721.68509
372.338	65714.81096
372.53	65723.97683
372.723	65802.00369
372.915	65749.19784
373.108	65776.73668
373.3	65710.22911
373.493	65703.35767
373.685	65701.06755
373.877	65795.11049
374.07	65685.04172
374.262	65675.88803
374.455	65785.92212
374.647	65843.39768
374.839	65678.17619
375.032	65733.14557
375.224	65733.14557
375.416	65792.81312
375.609	65296.18818
375.801	65740.02403
375.993	65785.92212
376.185	65797.40804
376.378	65749.19784
376.57	65728.56084
376.762	65723.97683
376.954	65710.22911
377.146	65696.48785
377.338	65788.21894
377.53	65779.03276
377.723	65694.19827
377.915	65783.62549
378.107	65742.31721
378.299	65774.44077
378.491	65769.84951
378.683	65723.97683
378.875	65765.25898
379.067	65675.88803
379.259	65703.35767
379.451	65751.49174
379.643	65687.33059
379.835	65717.10216
380.027	65671.31226
380.219	65783.62549
380.41	65737.73103
380.602	65730.85312
380.794	65829.59304
380.986	65774.44077
381.178	65744.61057
381.37	65751.49174
381.561	65735.43821
381.753	65653.01626
381.945	65666.73719
382.137	65733.14557
382.328	65762.96398
382.52	65774.44077
382.712	65767.55415
382.903	65671.31226
383.095	65753.78583
383.287	65799.70577
383.478	65712.51994
383.67	65772.14505
383.862	65730.85312
384.053	65723.97683
384.245	65769.84951
384.436	65701.06755
384.628	65728.56084
384.819	65756.08009
385.011	65696.48785
385.202	65749.19784
385.394	65769.84951
385.585	65643.87251
385.777	65765.25898
385.968	65806.60007
386.159	65742.31721
386.351	65735.43821
386.542	65707.93845
386.734	65659.87593
386.925	65760.66917
387.116	65719.39353
387.308	65723.97683
387.499	65785.92212
387.69	65701.06755
387.881	65659.87593
388.073	65735.43821
388.264	65733.14557
388.455	65820.39364
388.646	65687.33059
388.837	65705.64797
389.029	65728.56084
389.22	65753.78583
389.411	65774.44077
389.602	65730.85312
389.793	65765.25898
389.984	65744.61057
390.175	65714.81096
390.366	65701.06755
390.557	65797.40804
390.748	65737.73103
390.939	65813.49603
391.13	65760.66917
391.321	65723.97683
391.512	65756.08009
391.703	65742.31721
391.894	65769.84951
392.085	65792.81312
392.276	65783.62549
392.467	65797.40804
392.658	65779.03276
392.849	65733.14557
393.039	65762.96398
393.23	65746.90411
393.421	65721.68509
393.612	65737.73103
393.803	65744.61057
393.993	65643.87251
394.184	65707.93845
394.375	65795.11049
394.566	65733.14557
394.756	65721.68509
394.947	65685.04172
395.138	65767.55415
395.328	65671.31226
395.519	65691.90886
395.709	65797.40804
395.9	65639.3017
396.091	65767.55415
396.281	65769.84951
396.472	65762.96398
396.662	65788.21894
396.853	65779.03276
397.043	65760.66917
397.234	65765.25898
397.424	65719.39353
397.615	65719.39353
397.805	65728.56084
397.996	65818.09425
398.186	65682.75303
398.376	65664.44993
398.567	65776.73668
398.757	65746.90411
398.947	65877.93853
399.138	65694.19827
399.328	65682.75303
399.518	65799.70577
399.709	65829.59304
399.899	65742.31721
400.089	65779.03276
400.279	65733.14557
400.47	65740.02403
400.66	65737.73103
400.85	65666.73719
401.04	65703.35767
401.23	65678.17619
401.421	65717.10216
401.611	65760.66917
401.801	65701.06755
401.991	65733.14557
402.181	65751.49174
402.371	65719.39353
402.561	65671.31226
402.751	65753.78583
402.941	65705.64797
403.131	65664.44993
403.321	65774.44077
403.511	65723.97683
403.701	65694.19827
403.891	65733.14557
404.081	65730.85312
404.271	65781.32903
404.461	65662.16284
404.651	65790.51594
404.84	65712.51994
405.03	65703.35767
405.22	65779.03276
405.41	65767.55415
405.6	65680.46452
405.789	65685.04172
405.979	65669.02464
406.169	65808.89854
406.359	65742.31721
406.548	65792.81312
406.738	65792.81312
406.928	65666.73719
407.118	65701.06755
407.307	65687.33059
407.497	65735.43821
407.686	65678.17619
407.876	65785.92212
408.066	65765.25898
408.255	65774.44077
408.445	65767.55415
408.634	65694.19827
408.824	65714.81096
409.013	65758.37454
409.203	65680.46452
409.392	65714.81096
409.582	65719.39353
409.771	65813.49603
409.961	65772.14505
410.15	65701.06755
410.34	65712.51994
410.529	65788.21894
410.718	65728.56084
410.908	65600.4782
411.097	65788.21894
411.286	65772.14505
411.476	65802.00369
411.665	65762.96398
411.854	65753.78583
412.044	65797.40804
412.233	65712.51994
412.422	65712.51994
412.611	65730.85312
412.8	65689.61964
412.99	65776.73668
413.179	65696.48785
413.368	65769.84951
413.557	65795.11049
413.746	65746.90411
413.935	65769.84951
414.124	65815.79505
414.313	65680.46452
414.503	65714.81096
414.692	65772.14505
414.881	65659.87593
415.07	65675.88803
415.259	65749.19784
415.448	65673.60006
415.637	65730.85312
415.826	65712.51994
416.015	65804.30179
416.203	65749.19784
416.392	65698.77761
416.581	65760.66917
416.77	65719.39353
416.959	65707.93845
417.148	65767.55415
417.337	65779.03276
417.525	65723.97683
417.714	65705.64797
417.903	65783.62549
418.092	65779.03276
418.281	65712.51994
418.469	65721.68509
418.658	65726.26874
418.847	65756.08009
419.035	65790.51594
419.224	65804.30179
419.413	65781.32903
419.601	65723.97683
419.79	65813.49603
419.979	65749.19784
420.167	65783.62549
420.356	65746.90411
420.544	65710.22911
420.733	65779.03276
420.921	65758.37454
421.11	65710.22911
421.299	65696.48785
421.487	65740.02403
421.675	65735.43821
421.864	65744.61057
422.052	65762.96398
422.241	65643.87251
422.429	65756.08009
422.618	65746.90411
422.806	65723.97683
422.994	65756.08009
423.183	65701.06755
423.371	65756.08009
423.559	65714.81096
423.748	65687.33059
423.936	65760.66917
424.124	65845.6991
424.312	65781.32903
424.501	65723.97683
424.689	65746.90411
424.877	65744.61057
425.065	65742.31721
425.254	65760.66917
425.442	65598.19604
425.63	65666.73719
425.818	65657.58919
426.006	65746.90411
426.194	65653.01626
426.382	65671.31226
426.57	65703.35767
426.758	65719.39353
426.946	65756.08009
427.134	65694.19827
427.323	65772.14505
427.51	65742.31721
427.698	65728.56084
427.886	65698.77761
428.074	65662.16284
428.262	65843.39768
428.45	65733.14557
428.638	65726.26874
428.826	65701.06755
429.014	65774.44077
429.202	65848.00071
429.39	65811.19719
429.577	65671.31226
429.765	65673.60006
429.953	65669.02464
430.141	65744.61057
430.329	65701.06755
430.516	65769.84951
430.704	65609.60857
430.892	65758.37454
431.079	65831.89335
431.267	65673.60006
431.455	65808.89854
431.643	65662.16284
431.83	65710.22911
432.018	65698.77761
432.205	65758.37454
432.393	65806.60007
432.581	65742.31721
432.768	65673.60006
432.956	65678.17619
433.143	65719.39353
433.331	65691.90886
433.518	65758.37454
433.706	65740.02403
433.893	65632.4468
434.081	65765.25898
434.268	65648.44403
434.456	65781.32903
434.643	65769.84951
434.83	65682.75303
435.018	65682.75303
435.205	65765.25898
435.392	65765.25898
435.58	65838.79539
435.767	65680.46452
435.954	65735.43821
436.142	65673.60006
436.329	65774.44077
436.516	65756.08009
436.703	65698.77761
436.891	65659.87593
437.078	65685.04172
437.265	65680.46452
437.452	65689.61964
437.639	65723.97683
437.827	65705.64797
438.014	65687.33059
438.201	65740.02403
438.388	65682.75303
438.575	65733.14557
438.762	65735.43821
438.949	65749.19784
439.136	65694.19827
439.323	65641.58701
439.51	65742.31721
439.697	65664.44993
439.884	65669.02464
440.071	65694.19827
440.258	65666.73719
440.445	65678.17619
440.632	65484.30887
440.819	65687.33059
441.006	65616.4582
441.193	65701.06755
441.38	65664.44993
441.566	65726.26874
441.753	65735.43821
441.94	65669.02464
442.127	65733.14557
442.314	65653.01626
442.5	65630.16219
442.687	65646.15818
442.874	65673.60006
443.061	65680.46452
443.247	65664.44993
443.434	65575.38405
443.621	65742.31721
443.807	65687.33059
443.994	65563.98458
444.181	65701.06755
444.367	65730.85312
444.554	65646.15818
444.74	65671.31226
444.927	65701.06755
445.114	65643.87251
445.3	65518.42988
445.487	65595.91406
445.673	65611.89161
445.86	65641.58701
446.046	65666.73719
446.233	65630.16219
446.419	65662.16284
446.605	65557.14698
446.792	65561.70521
446.978	65701.06755
447.165	65637.01655
447.351	65662.16284
447.537	65675.88803
447.724	65685.04172
447.91	65570.82374
448.096	65595.91406
448.283	65532.08906
448.469	65634.73159
448.655	65618.74176
448.841	65566.26413
449.028	65605.04304
449.214	65591.35061
449.4	65568.54385
449.586	65589.06915
449.773	65561.70521
449.959	65589.06915
450.145	65475.2164
450.331	65605.04304
450.517	65634.73159
450.703	65513.87819
450.889	65607.32572
451.075	65552.58944
451.261	65477.48926
451.447	65470.67118
451.633	65550.31093
451.819	65538.92097
452.005	65468.39882
452.191	65536.6435
452.377	65518.42988
452.563	65495.67827
452.749	65500.22723
452.935	65475.2164
453.121	65436.60359
453.307	65466.12664
453.493	65409.37673
453.679	65450.22607
453.865	65420.71833
454.05	65393.5055
454.236	65438.87358
454.422	65504.77687
454.608	65461.58278
454.794	65482.03549
454.979	65491.13
455.165	65459.3111
455.351	65400.30645
455.537	65404.84126
455.722	65330.10165
455.908	65411.64471
456.094	65348.20386
456.279	65327.83961
456.465	65293.92859
456.65	65388.97236
456.836	65357.25891
457.022	65345.94051
457.207	65361.78742
457.393	65314.27081
457.578	65366.31659
457.764	65269.0837
457.949	65341.41431
458.135	65280.3744
458.32	65416.18119
458.506	65368.58142
458.691	65332.36386
458.877	65312.00991
459.062	65377.6424
459.248	65384.43988
459.433	65260.05403
459.618	65237.4911
459.804	65334.62622
459.989	65242.00241
460.174	65237.4911
460.36	65264.56854
460.545	65278.11594
460.73	65293.92859
460.915	65282.63303
461.101	65291.66915
461.286	65260.05403
461.471	65278.11594
461.656	65391.23884
461.842	65237.4911
462.027	65266.82604
462.212	65237.4911
462.397	65219.45228
462.582	65251.02693
462.767	65149.6476
462.952	65345.94051
463.138	65230.72535
463.323	65154.14657
463.508	65251.02693
463.693	65210.43668
463.878	65242.00241
464.063	65151.89701
464.248	65187.90881
464.433	65187.90881
464.618	65187.90881
464.803	65183.40513
464.988	65185.65689
465.173	65118.17233
465.357	65158.64616
465.542	65163.14637
465.727	65066.52888
465.912	65115.92527
466.097	65172.14869
466.282	65172.14869
466.467	65115.92527
466.651	65071.01638
466.836	65071.01638
467.021	65228.47041
467.206	65122.66693
467.391	65181.15353
467.575	65142.90033
467.76	65133.90615
467.945	65048.58498
468.129	65079.99323
468.314	65041.85854
468.499	65158.64616
468.683	65030.65085
468.868	65111.4316
469.053	65100.20014
469.237	65084.48257
469.422	65030.65085
469.606	65086.72748
469.791	65149.6476
469.975	65068.77255
470.16	65095.70863
470.344	65059.79877
470.529	65131.658
470.713	64963.48403
470.898	65124.91447
471.082	65086.72748
471.267	65133.90615
471.451	65118.17233
471.636	65235.23569
471.82	65124.91447
472.004	64994.81169
472.189	65113.67835
472.373	65187.90881
472.557	65169.89788
472.742	65156.39628
472.926	65165.39672
473.11	65176.65079
473.295	65082.23782
473.479	65091.21775
473.663	65100.20014
473.847	65163.14637
474.031	65154.14657
474.216	65149.6476
474.4	65174.39966
474.584	65167.64722
474.768	65129.41
474.952	65064.28535
475.136	65062.04199
475.32	65194.66551
475.505	65082.23782
475.689	65028.40977
475.873	65102.44612
476.057	65093.46311
476.241	65140.65155
476.425	65066.52888
476.609	65030.65085
476.793	65106.93855
476.977	65176.65079
477.161	65071.01638
477.345	65053.07004
477.529	65169.89788
477.713	65014.96645
477.896	65151.89701
478.08	64997.0505
478.264	65064.28535
478.448	65088.97253
478.632	65019.44695
478.816	65228.47041
478.999	65035.13347
479.183	65118.17233
479.367	65086.72748
479.551	64923.24857
479.735	65026.16884
479.918	65062.04199
480.102	64994.81169
480.286	65032.89208
480.469	65100.20014
480.653	64997.0505
480.837	65012.72643
481.02	65039.6167
481.204	64999.28947
481.388	64970.19463
481.571	64871.9062
481.755	65008.24684
481.938	64999.28947
482.122	65035.13347
482.305	64938.88997
482.489	64856.29563
482.673	64900.91625
482.856	64974.66911
483.04	64967.95761
483.223	64959.01104
483.406	64979.14418
483.59	64974.66911
483.773	64918.78092
483.957	64999.28947
484.14	64889.75561
484.323	64854.06613
484.507	64896.45156
484.69	64929.95114
484.874	65001.52858
485.057	64947.83118
485.24	64903.14882
485.423	65039.6167
485.607	64880.82974
485.79	64938.88997
485.973	64894.21943
486.156	64829.55119
486.34	64845.14958
486.523	64827.32343
486.706	64887.52392
486.889	64959.01104
487.072	64854.06613
487.256	64834.00715
487.439	64894.21943
487.622	64836.23535
487.805	64889.75561
487.988	64860.75506
488.171	64829.55119
488.354	64818.41382
488.537	64883.06099
488.72	64836.23535
488.903	64811.73312
489.086	64865.21508
489.269	64825.09581
489.452	64820.641
489.635	64769.45198
489.818	64660.64664
490.001	64898.68383
490.184	64858.52527
490.367	64856.29563
490.55	64760.55725
490.732	64653.99596
490.915	64798.37561
491.098	64760.55725
491.281	64885.29238
491.464	64811.73312
491.647	64838.46369
491.829	64845.14958
492.012	64753.88769
492.195	64700.57688
492.378	64789.47346
492.56	64645.13033
492.743	64667.29855
492.926	64638.48255
493.108	64778.34899
493.291	64758.33392
493.474	64620.76119
493.656	64636.2669
493.839	64580.92009
494.022	64647.34653
494.204	64576.49601
494.387	64603.04858
494.569	64740.55238
494.752	64609.68979
494.934	64634.05139
495.117	64620.76119
495.299	64658.42961
495.482	64589.76985
495.664	64543.33269
495.847	64625.19071
496.029	64665.08111
496.212	64413.18078
496.394	64636.2669
496.576	64589.76985
496.759	64682.82455
496.941	64505.78407
497.123	64351.57276
497.306	64658.42961
497.488	64572.07248
497.67	64640.69834
497.853	64634.05139
498.035	64507.99175
498.217	64441.81899
498.4	64512.4075
498.582	64662.8638
498.764	64587.55721
498.946	64516.82378
499.128	64530.07583
499.311	64558.80513
499.493	64651.77935
499.675	64519.03212
499.857	64481.5084
500.039	64444.02284
500.221	64481.5084
500.403	64461.65837
500.585	64360.36773
500.767	64421.99019
500.949	64461.65837
501.132	64485.92096
501.314	64519.03212
501.496	64377.96384
501.678	64591.98264
501.859	64448.43093
502.041	64439.61526
502.223	64439.61526
502.405	64472.68484
502.587	64375.76388
502.769	64399.97055
502.951	64397.7693
503.133	64426.39568
503.315	64481.5084
503.497	64455.04406
503.678	64446.22682
503.86	64534.49425
504.042	64329.59424
504.224	64360.36773
504.406	64419.78764
504.587	64474.89053
504.769	64428.59862
504.951	64404.37344
505.132	64512.4075
505.314	64446.22682
505.496	64408.77685
505.678	64474.89053
505.859	64457.2487
506.041	64408.77685
506.222	64424.19287
506.404	64419.78764
506.586	64433.00488
506.767	64369.16476
506.949	64477.09636
507.13	64426.39568
507.312	64435.20821
507.493	64294.45499
507.675	64410.97875
507.856	64408.77685
508.038	64499.16184
508.219	64477.09636
508.401	64474.89053
508.582	64380.16393
508.764	64417.58522
508.945	64384.5645
509.126	64472.68484
509.308	64455.04406
509.489	64439.61526
509.671	64496.9547
509.852	64404.37344
510.033	64496.9547
510.214	64470.47929
510.396	64510.19956
510.577	64576.49601
510.758	64393.36718
510.94	64404.37344
511.121	64439.61526
511.302	64441.81899
511.483	64477.09636
511.664	64413.18078
511.846	64525.65794
512.027	64444.02284
512.208	64507.99175
512.389	64494.74769
512.57	64410.97875
512.751	64448.43093
512.932	64430.80168
513.113	64340.58191
513.294	64463.8634
513.476	64450.63518
513.657	64483.71461
513.838	64558.80513
514.019	64419.78764
514.2	64499.16184
514.381	64444.02284
514.561	64424.19287
514.742	64521.24059
514.923	64452.83955
515.104	64435.20821
515.285	64479.30231
515.466	64510.19956
515.647	64547.75272
515.828	64402.17193
516.009	64446.22682
516.189	64521.24059
516.37	64556.59438
516.551	64530.07583
516.732	64530.07583
516.913	64494.74769
517.093	64523.4492
517.274	64530.07583
517.455	64371.36434
517.636	64444.02284
517.816	64435.20821
517.997	64459.45347
518.178	64466.06856
518.358	64565.4382
518.539	64492.54081
518.72	64474.89053
518.9	64463.8634
519.081	64477.09636
519.261	64426.39568
519.442	64342.77982
519.622	64459.45347
519.803	64463.8634
519.984	64413.18078
520.164	64490.33406
520.345	64470.47929
520.525	64457.2487
520.705	64512.4075
520.886	64408.77685
521.066	64622.97588
521.247	64479.30231
521.427	64483.71461
521.608	64325.20006
521.788	64510.19956
521.968	64312.02057
522.149	64527.86682
522.329	64450.63518
522.509	64558.80513
522.69	64510.19956
522.87	64538.9132
523.05	64565.4382
523.231	64545.54264
523.411	64505.78407
523.591	64452.83955
523.771	64534.49425
523.951	64448.43093
524.132	64430.80168
524.312	64481.5084
524.492	64510.19956
524.672	64455.04406
524.852	64430.80168
525.032	64492.54081
525.213	64459.45347
525.393	64391.16632
525.573	64567.64949
525.753	64419.78764
525.933	64446.22682
526.113	64452.83955
526.293	64556.59438
526.473	64525.65794
526.653	64380.16393
526.833	64516.82378
527.013	64574.28418
527.193	64490.33406
527.373	64505.78407
527.553	64479.30231
527.733	64448.43093
527.913	64536.70366
528.092	64676.16972
528.272	64461.65837
528.452	64519.03212
528.632	64598.6218
528.812	64503.57653
528.992	64452.83955
529.171	64485.92096
529.351	64580.92009
529.531	64574.28418
529.711	64470.47929
529.89	64572.07248
530.07	64463.8634
530.25	64377.96384
530.43	64382.36415
530.609	64505.78407
530.789	64488.12745
530.969	64477.09636
531.148	64545.54264
531.328	64583.13232
531.507	64536.70366
531.687	64450.63518
531.867	64576.49601
532.046	64435.20821
532.226	64541.12288
532.405	64479.30231
532.585	64501.36912
532.764	64523.4492
532.944	64377.96384
533.123	64505.78407
533.303	64556.59438
533.482	64380.16393
533.662	64532.28497
533.841	64474.89053
534.021	64439.61526
534.2	64527.86682
534.379	64572.07248
534.559	64510.19956
534.738	64470.47929
534.917	64611.90379
535.097	64501.36912
535.276	64496.9547
535.455	64455.04406
535.635	64589.76985
535.814	64534.49425
535.993	64466.06856
536.172	64598.6218
536.352	64561.01602
536.531	64580.92009
536.71	64488.12745
536.889	64507.99175
537.068	64547.75272
537.248	64567.64949
537.427	64430.80168
537.606	64501.36912
537.785	64505.78407
537.964	64521.24059
538.143	64585.3447
538.322	64536.70366
538.501	64503.57653
538.68	64558.80513
538.859	64455.04406
539.038	64594.19555
539.217	64594.19555
539.396	64662.8638
539.575	64519.03212
539.754	64501.36912
539.933	64466.06856
540.112	64687.26179
540.291	64525.65794
540.47	64527.86682
540.649	64530.07583
540.828	64687.26179
541.007	64496.9547
541.186	64605.26218
541.364	64505.78407
541.543	64587.55721
541.722	64543.33269
541.901	64580.92009
542.08	64430.80168
542.258	64468.27386
542.437	64611.90379
542.616	64477.09636
542.795	64631.83601
542.973	64587.55721
543.152	64596.40861
543.331	64574.28418
543.509	64620.76119
543.688	64501.36912
543.867	64598.6218
544.045	64611.90379
544.224	64461.65837
544.402	64202.36699
544.581	64565.4382
544.76	64662.8638
544.938	64556.59438
545.117	64525.65794
545.295	64574.28418
545.474	64572.07248
545.652	64647.34653
545.831	64598.6218
546.009	64468.27386
546.188	64572.07248
546.366	64585.3447
546.544	64563.22704
546.723	64558.80513
546.901	64552.17328
547.08	64494.74769
547.258	64605.26218
547.436	64603.04858
547.615	64651.77935
547.793	64578.70798
547.971	64561.01602
548.15	64576.49601
548.328	64523.4492
548.506	64461.65837
548.684	64435.20821
548.863	64596.40861
549.041	64627.40567
549.219	64685.0431
549.397	64547.75272
549.576	64598.6218
549.754	64556.59438
549.932	64583.13232
550.11	64625.19071
550.288	64660.64664
550.466	64747.2194
550.644	64523.4492
550.822	64620.76119
551.001	64660.64664
551.179	64713.897
551.357	64649.56287
551.535	64591.98264
551.713	64651.77935
551.891	64656.21272
552.069	64700.57688
552.247	64660.64664
552.425	64696.13796
552.603	64696.13796
552.781	64673.95172
552.958	64705.01636
553.136	64682.82455
553.314	64798.37561
553.492	64753.88769
553.67	64780.5736
553.848	64793.92425
554.026	64891.98745
554.204	64874.13687
554.381	64813.95988
554.559	64876.36768
554.737	64950.06686
554.915	64883.06099
555.092	64840.69217
555.27	64914.31387
555.448	64876.36768
555.626	64927.7168
555.803	65014.96645
555.981	64842.9208
556.159	64972.43179
556.336	64981.38195
556.514	65044.10054
556.692	64999.28947
556.869	64972.43179
557.047	64967.95761
557.224	64999.28947
557.402	65014.96645
557.58	64938.88997
557.757	65053.07004
557.935	65151.89701
558.112	65057.55571
558.29	65046.34268
558.467	65151.89701
558.645	65154.14657
558.822	65167.64722
559	65140.65155
559.177	65115.92527
559.354	65091.21775
559.532	65097.95431
559.709	65129.41
559.887	65091.21775
560.064	65192.41312
560.241	65068.77255
560.419	65088.97253
560.596	65068.77255
560.773	65062.04199
560.951	65044.10054
561.128	64927.7168
561.305	65156.39628
561.482	65097.95431
561.66	65046.34268
561.837	65041.85854
562.014	65091.21775
562.191	65165.39672
562.368	65111.4316
562.546	65044.10054
562.723	65145.14926
562.9	65113.67835
563.077	65039.6167
563.254	65136.15446
563.431	65104.69226
563.608	65017.20663
563.785	65133.90615
563.962	65073.26036
564.139	65163.14637
564.317	65046.34268
564.494	65178.90208
564.671	64981.38195
564.848	65077.74879
565.025	65129.41
565.201	65156.39628
565.378	65086.72748
565.555	65084.48257
565.732	65120.41956
565.909	65129.41
566.086	65111.4316
566.263	65160.89619
566.44	65115.92527
566.617	65156.39628
566.794	65077.74879
566.97	65140.65155
567.147	65210.43668
567.324	65113.67835
567.501	65174.39966
567.678	65111.4316
567.854	65133.90615
568.031	65244.2583
568.208	65113.67835
568.384	65178.90208
568.561	65154.14657
568.738	65178.90208
568.915	65156.39628
569.091	65230.72535
569.268	65190.16088
569.444	65239.74668
569.621	65210.43668
569.798	65237.4911
569.974	65181.15353
570.151	65176.65079
570.327	65192.41312
570.504	65165.39672
570.681	65260.05403
570.857	65228.47041
571.034	65237.4911
571.21	65187.90881
571.387	65334.62622
571.563	65307.4886
571.739	65145.14926
571.916	65357.25891
572.092	65282.63303
572.269	65230.72535
572.445	65244.2583
572.622	65291.66915
572.798	65230.72535
572.974	65284.89182
573.151	65341.41431
573.327	65282.63303
573.503	65181.15353
573.68	65343.67733
573.856	65336.88875
574.032	65341.41431
574.208	65221.70657
574.385	65246.51435
574.561	65359.52308
574.737	65332.36386
574.913	65228.47041
575.089	65332.36386
575.266	65336.88875
575.442	65348.20386
575.618	65187.90881
575.794	65309.74917
575.97	65318.79309
576.146	65248.77056
576.322	65314.27081
576.499	65205.92984
576.675	65223.96103
576.851	65226.21564
577.027	65149.6476
577.203	65282.63303
577.379	65323.31602
577.555	65278.11594
577.731	65232.98044
577.907	64907.6144
578.083	65187.90881
578.259	65260.05403
578.435	65235.23569
578.611	65115.92527
578.786	65131.658
578.962	65183.40513
579.138	65296.18818
579.314	65187.90881
579.49	65260.05403
579.666	65163.14637
579.842	65239.74668
580.017	65239.74668
580.193	65226.21564
580.369	65174.39966
580.545	65199.17077
580.72	65104.69226
580.896	65235.23569
581.072	65124.91447
581.248	65172.14869
581.423	65100.20014
581.599	65203.67666
581.775	65163.14637
581.95	65165.39672
582.126	65192.41312
582.302	65095.70863
582.477	65158.64616
582.653	65219.45228
582.829	65203.67666
583.004	65293.92859
583.18	65190.16088
583.355	65228.47041
583.531	65158.64616
583.706	65136.15446
583.882	65228.47041
584.057	65312.00991
584.233	65174.39966
584.408	65075.5045
584.584	65194.66551
584.759	65257.79701
584.935	65257.79701
585.11	65244.2583
585.285	65278.11594
585.461	65350.46738
585.636	65251.02693
585.812	65269.0837
585.987	65336.88875
586.162	65323.31602
586.338	65264.56854
586.513	65359.52308
586.688	65420.71833
586.863	65298.44794
587.039	65354.9949
587.214	65330.10165
587.389	65325.57774
587.564	65366.31659
587.74	65323.31602
587.915	65491.13
588.09	65436.60359
588.265	65373.11158
588.44	65450.22607
588.615	65434.33376
588.791	65422.98715
588.966	65477.48926
589.141	65495.67827
589.316	65416.18119
589.491	65429.79461
589.666	65400.30645
589.841	65364.05192
590.016	65475.2164
590.191	65391.23884
590.366	65522.98225
590.541	65541.19862
590.716	65491.13
590.891	65468.39882
591.066	65563.98458
591.241	65538.92097
591.416	65557.14698
591.591	65545.75443
591.766	65545.75443
591.941	65659.87593
592.116	65673.60006
592.29	65554.86812
592.465	65602.76053
592.64	65717.10216
592.815	65650.73006
592.99	65701.06755
593.165	65659.87593
593.339	65682.75303
593.514	65653.01626
593.689	65575.38405
593.864	65657.58919
594.038	65685.04172
594.213	65577.66447
594.388	65659.87593
594.562	65637.01655
594.737	65575.38405
594.912	65655.30264
595.086	65712.51994
595.261	65664.44993
595.436	65593.63225
595.61	65614.17482
595.785	65607.32572
595.959	65602.76053
596.134	65643.87251
596.309	65641.58701
596.483	65648.44403
596.658	65637.01655
596.832	65664.44993
597.007	65538.92097
597.181	65696.48785
597.356	65611.89161
597.53	65701.06755
597.704	65673.60006
597.879	65632.4468
598.053	65637.01655
598.228	65550.31093
598.402	65548.03259
598.576	65648.44403
598.751	65563.98458
598.925	65623.3094
599.1	65623.3094
599.274	65669.02464
599.448	65634.73159
599.622	65541.19862
599.797	65618.74176
599.971	65618.74176
600.145	65495.67827
600.32	65591.35061
600.494	65616.4582
600.668	65568.54385
600.842	65557.14698
601.016	65666.73719
601.191	65568.54385
601.365	65359.52308
601.539	65589.06915
601.713	65623.3094
601.887	65532.08906
602.061	65648.44403
602.235	65570.82374
602.409	65641.58701
602.583	65579.94506
602.758	65703.35767
602.932	65641.58701
603.106	65705.64797
603.28	65655.30264
603.454	65609.60857
603.628	65563.98458
603.802	65659.87593
603.976	65643.87251
604.149	65625.59349
604.323	65579.94506
604.497	65657.58919
604.671	65575.38405
604.845	65609.60857
605.019	65648.44403
605.193	65659.87593
605.367	65573.10381
605.541	65605.04304
605.714	65550.31093
605.888	65559.42601
606.062	65630.16219
606.236	65733.14557
606.41	65516.15395
606.583	65641.58701
606.757	65664.44993
606.931	65609.60857
607.105	65643.87251
607.278	65648.44403
607.452	65694.19827
607.626	65559.42601
607.799	65643.87251
607.973	65662.16284
608.147	65602.76053
608.32	65659.87593
608.494	65614.17482
608.668	65641.58701
608.841	65541.19862
609.015	65552.58944
609.188	65605.04304
609.362	65714.81096
609.535	65627.87775
609.709	65653.01626
609.882	65616.4582
610.056	65589.06915
610.229	65618.74176
610.403	65621.02549
610.576	65516.15395
610.75	65589.06915
610.923	65618.74176
611.097	65675.88803
611.27	65543.47644
611.443	65609.60857
611.617	65710.22911
611.79	65714.81096
611.963	65607.32572
612.137	65618.74176
612.31	65614.17482
612.483	65641.58701
612.657	65625.59349
612.83	65682.75303
613.003	65680.46452
613.177	65641.58701
613.35	65659.87593
613.523	65618.74176
613.696	65595.91406
613.869	65733.14557
614.043	65570.82374
614.216	65618.74176
614.389	65657.58919
614.562	65579.94506
614.735	65634.73159
614.908	65643.87251
615.082	65577.66447
615.255	65623.3094
615.428	65586.78787
615.601	65664.44993
615.774	65637.01655
615.947	65591.35061
616.12	65495.67827
616.293	65532.08906
616.466	65545.75443
616.639	65563.98458
616.812	65595.91406
616.985	65513.87819
617.158	65593.63225
617.331	65611.89161
617.504	65591.35061
617.677	65669.02464
617.85	65623.3094
618.022	65637.01655
618.195	65618.74176
618.368	65554.86812
618.541	65541.19862
618.714	65621.02549
618.887	65609.60857
619.059	65575.38405
619.232	65618.74176
619.405	65461.58278
619.578	65491.13
619.751	65600.4782
619.923	65577.66447
620.096	65509.32719
620.269	65529.8121
620.441	65579.94506
620.614	65621.02549
620.787	65548.03259
620.96	65561.70521
621.132	65466.12664
621.305	65438.87358
621.477	65495.67827
621.65	65582.22582
621.823	65595.91406
621.995	65491.13
622.168	65500.22723
622.34	65502.50196
622.513	65513.87819
622.685	65509.32719
622.858	65491.13
623.03	65550.31093
623.203	65577.66447
623.375	65529.8121
623.548	65570.82374
623.72	65502.50196
623.893	65504.77687
624.065	65527.53531
624.238	65520.70598
624.41	65621.02549
624.582	65459.3111
624.755	65536.6435
624.927	65513.87819
625.1	65507.05194
625.272	65579.94506
625.444	65472.9437
625.617	65386.70603
625.789	65463.85462
625.961	65525.2587
626.133	65461.58278
626.306	65447.95524
626.478	65447.95524
626.65	65432.0641
626.822	65513.87819
626.995	65411.64471
627.167	65422.98715
627.339	65493.40405
627.511	65384.43988
627.683	65422.98715
627.855	65393.5055
628.027	65472.9437
628.2	65407.10891
628.372	65432.0641
628.544	65434.33376
628.716	65432.0641
628.888	65409.37673
629.06	65345.94051
629.232	65509.32719
629.404	65434.33376
629.576	65350.46738
629.748	65450.22607
629.92	65312.00991
630.092	65300.70786
630.264	65398.0393
630.436	65475.2164
630.608	65407.10891
630.78	65402.57377
630.952	65445.68457
631.124	65368.58142
631.295	65391.23884
631.467	65443.41407
631.639	65359.52308
631.811	65438.87358
631.983	65418.44967
632.155	65418.44967
632.326	65413.91287
632.498	65409.37673
632.67	65418.44967
632.842	65452.49708
633.014	65398.0393
633.185	65341.41431
633.357	65429.79461
633.529	65302.96795
633.7	65336.88875
633.872	65452.49708
634.044	65454.76825
634.215	65343.67733
634.387	65418.44967
634.559	65495.67827
634.73	65438.87358
634.902	65486.58241
635.074	65422.98715
635.245	65413.91287
635.417	65436.60359
635.588	65350.46738
635.76	65495.67827
635.931	65482.03549
636.103	65495.67827
636.274	65391.23884
636.446	65443.41407
636.617	65377.6424
636.789	65470.67118
636.96	65463.85462
637.132	65484.30887
637.303	65472.9437
637.474	65504.77687
637.646	65422.98715
637.817	65497.95267
637.989	65450.22607
638.16	65509.32719
638.331	65532.08906
638.503	65395.77232
638.674	65427.52529
638.845	65532.08906
639.017	65443.41407
639.188	65445.68457
639.359	65534.36619
639.53	65520.70598
639.702	65450.22607
639.873	65529.8121
640.044	65493.40405
640.215	65504.77687
640.387	65404.84126
640.558	65386.70603
640.729	65359.52308
640.9	65388.97236
641.071	65400.30645
641.242	65404.84126
641.413	65416.18119
641.585	65461.58278
641.756	65388.97236
641.927	65516.15395
642.098	65441.14374
642.269	65438.87358
642.44	65504.77687
642.611	65432.0641
642.782	65438.87358
642.953	65348.20386
643.124	65391.23884
643.295	65513.87819
643.466	65379.90806
643.637	65443.41407
643.808	65425.25613
643.979	65357.25891
644.15	65330.10165
644.32	65384.43988
644.491	65402.57377
644.662	65550.31093
644.833	65427.52529
645.004	65393.5055
645.175	65436.60359
645.346	65373.11158
645.516	65466.12664
645.687	65418.44967
645.858	65420.71833
646.029	65370.84642
646.199	65452.49708
646.37	65413.91287
646.541	65477.48926
646.712	65350.46738
646.882	65398.0393
647.053	65429.79461
647.224	65425.25613
647.394	65411.64471
647.565	65416.18119
647.736	65454.76825
647.906	65488.85612
648.077	65416.18119
648.248	65486.58241
648.418	65459.3111
648.589	65502.50196
648.759	65443.41407
648.93	65445.68457
649.1	65504.77687
649.271	65373.11158
649.441	65382.17389
649.612	65454.76825
649.782	65379.90806
649.953	65361.78742
650.123	65413.91287
650.294	65354.9949
650.464	65395.77232
650.635	65102.44612
650.805	65418.44967
650.975	65291.66915
651.146	65454.76825
651.316	65409.37673
651.487	65438.87358
651.657	65441.14374
651.827	65373.11158
651.998	65495.67827
652.168	65382.17389
652.338	65445.68457
652.508	65511.6026
652.679	65434.33376
652.849	65354.9949
653.019	65391.23884
653.189	65386.70603
653.36	65400.30645
653.53	65495.67827
653.7	65402.57377
653.87	65516.15395
654.04	65450.22607
654.211	65468.39882
654.381	65373.11158
654.551	65486.58241
654.721	65395.77232
654.891	65470.67118
655.061	65393.5055
655.231	65504.77687
655.401	65518.42988
655.571	65484.30887
655.741	65402.57377
655.911	65450.22607
656.081	65388.97236
656.251	65520.70598
656.421	65416.18119
656.591	65511.6026
656.761	65427.52529
656.931	65552.58944
657.101	65518.42988
657.271	65463.85462
657.441	65441.14374
657.611	65554.86812
657.781	65445.68457
657.951	65488.85612
658.121	65427.52529
658.291	65422.98715
658.46	65529.8121
658.63	65457.03959
658.8	65484.30887
658.97	65452.49708
659.14	65400.30645
659.309	65479.76229
659.479	65434.33376
659.649	65509.32719
659.819	65425.25613
659.988	65545.75443
660.158	65577.66447
660.328	65457.03959
660.497	65520.70598
660.667	65507.05194
660.837	65457.03959
661.006	65436.60359
661.176	65595.91406
661.346	65486.58241
661.515	65527.53531
661.685	65532.08906
661.854	65488.85612
662.024	65516.15395
662.194	65477.48926
662.363	65466.12664
662.533	65518.42988
662.702	65614.17482
662.872	65563.98458
663.041	65454.76825
663.211	65600.4782
663.38	65657.58919
663.55	65520.70598
663.719	65516.15395
663.889	65639.3017
664.058	65595.91406
664.227	65541.19862
664.397	65527.53531
664.566	65525.2587
664.735	65614.17482
664.905	65575.38405
665.074	65575.38405
665.244	65559.42601
665.413	65623.3094
665.582	65536.6435
665.751	65570.82374
665.921	65573.10381
666.09	65582.22582
666.259	65534.36619
666.428	65577.66447
666.598	65582.22582
666.767	65525.2587
666.936	65534.36619
667.105	65513.87819
667.275	65566.26413
667.444	65563.98458
667.613	65470.67118
667.782	65623.3094
667.951	65527.53531
668.12	65554.86812
668.289	65566.26413
668.458	65518.42988
668.628	65621.02549
668.797	65589.06915
668.966	65605.04304
669.135	65486.58241
669.304	65557.14698
669.473	65557.14698
669.642	65584.50676
669.811	65586.78787
669.98	65538.92097
670.149	65516.15395
670.318	65632.4468
670.487	65600.4782
670.656	65545.75443
670.824	65591.35061
670.993	65641.58701
671.162	65543.47644
671.331	65529.8121
671.5	65593.63225
671.669	65614.17482
671.838	65630.16219
672.007	65563.98458
672.175	65579.94506
672.344	65591.35061
672.513	65450.22607
672.682	65625.59349
672.85	65541.19862
673.019	65509.32719
673.188	65484.30887
673.357	65538.92097
673.525	65630.16219
673.694	65630.16219
673.863	65579.94506
674.032	65541.19862
674.2	65607.32572
674.369	65607.32572
674.537	65550.31093
674.706	65646.15818
674.875	65598.19604
675.043	65577.66447
675.212	65563.98458
675.381	65563.98458
675.549	65618.74176
675.718	65637.01655
675.886	65589.06915
676.055	65659.87593
676.223	65632.4468
676.392	65568.54385
676.56	65582.22582
676.729	65593.63225
676.897	65655.30264
677.066	65618.74176
677.234	65616.4582
677.403	65719.39353
677.571	65623.3094
677.739	65614.17482
677.908	65637.01655
678.076	65589.06915
678.244	65602.76053
678.413	65653.01626
678.581	65584.50676
678.75	65639.3017
678.918	65643.87251
679.086	65627.87775
679.254	65721.68509
679.423	65532.08906
679.591	65627.87775
679.759	65623.3094
679.928	65650.73006
680.096	65602.76053
680.264	65637.01655
680.432	65598.19604
680.6	65625.59349
680.769	65577.66447
680.937	65678.17619
681.105	65577.66447
681.273	65575.38405
681.441	65630.16219
681.609	65522.98225
681.777	65630.16219
681.945	65595.91406
682.114	65653.01626
682.282	65605.04304
682.45	65637.01655
682.618	65664.44993
682.786	65721.68509
682.954	65616.4582
683.122	65445.68457
683.29	65543.47644
683.458	65650.73006
683.626	65646.15818
683.794	65616.4582
683.962	65735.43821
684.13	65561.70521
684.298	65675.88803
684.465	65609.60857
684.633	65664.44993
684.801	65678.17619
684.969	65653.01626
685.137	65573.10381
685.305	65673.60006
685.473	65614.17482
685.64	65673.60006
685.808	65751.49174
685.976	65545.75443
686.144	65701.06755
686.312	65532.08906
686.479	65694.19827
686.647	65685.04172
686.815	65643.87251
686.983	65662.16284
687.15	65625.59349
687.318	65659.87593
687.486	65627.87775
687.653	65614.17482
687.821	65666.73719
687.989	65616.4582
688.156	65707.93845
688.324	65682.75303
688.492	65625.59349
688.659	65769.84951
688.827	65598.19604
688.994	65691.90886
689.162	65673.60006
689.329	65566.26413
689.497	65694.19827
689.665	65735.43821
689.832	65623.3094
690	65605.04304
690.167	65703.35767
690.335	65664.44993
690.502	65687.33059
690.669	65623.3094
690.837	65666.73719
691.004	65575.38405
691.172	65573.10381
691.339	65557.14698
691.507	65726.26874
691.674	65691.90886
691.841	65701.06755
692.009	65740.02403
692.176	65655.30264
692.343	65701.06755
692.511	65662.16284
692.678	65669.02464
692.845	65655.30264
693.013	65710.22911
693.18	65621.02549
693.347	65641.58701
693.514	65744.61057
693.682	65643.87251
693.849	65689.61964
694.016	65669.02464
694.183	65600.4782
694.35	65783.62549
694.518	65696.48785
694.685	65698.77761
694.852	65694.19827
695.019	65788.21894
695.186	65657.58919
695.353	65579.94506
695.52	65634.73159
695.687	65630.16219
695.855	65648.44403
696.022	65646.15818
696.189	65691.90886
696.356	65710.22911
696.523	65760.66917
696.69	65577.66447
696.857	65788.21894
697.024	65616.4582
697.191	65707.93845
697.358	65618.74176
697.525	65600.4782
697.692	65650.73006
697.858	65726.26874
698.025	65634.73159
698.192	65639.3017
698.359	65740.02403
698.526	65650.73006
698.693	65657.58919
698.86	65701.06755
699.027	65680.46452
699.193	65746.90411
699.36	65701.06755
699.527	65712.51994
699.694	65735.43821
699.861	65735.43821
700.027	65577.66447
700.194	65623.3094
700.361	65639.3017
700.528	65630.16219
700.694	65685.04172
700.861	65721.68509
701.028	65653.01626
701.195	65653.01626
701.361	65643.87251
701.528	65691.90886
701.694	65634.73159
701.861	65760.66917
702.028	65561.70521
702.194	65621.02549
702.361	65691.90886
702.528	65689.61964
702.694	65682.75303
702.861	65536.6435
703.027	65650.73006
703.194	65707.93845
703.36	65653.01626
703.527	65751.49174
703.693	65598.19604
703.86	65586.78787
704.026	65675.88803
704.193	65827.29291
704.359	65673.60006
704.526	65723.97683
