Data from Sun spf500_Subt2__1__09-57-14-333.txt Node

Date: Tue Sep 23 09:57:14 EDT 2025
User: brett
Spectrometer: USB4F03499
Trigger mode: 4
Integration Time (sec): 1.000000E-1
Scans to average: 1
Electric dark correction enabled: true
Nonlinearity correction enabled: true
Boxcar width: 0
XAxis mode: Wavelengths
Number of Pixels in Spectrum: 3648
>>>>>Begin Spectral Data<<<<<
0	-2.11546
0.225	-2.11546
0.449	-2.11546
0.674	-82.83714
0.898	34.72421
1.123	-73.14161
1.347	-27.30442
1.572	-20.45877
1.796	43.82036
2.021	20.82473
2.245	7.04965
2.469	23.11281
2.694	-70.80276
2.918	-2.10241
3.143	-50.33646
3.367	105.39263
3.591	43.75106
3.815	-57.17441
4.04	849.65986
4.264	1213.94886
4.488	1197.8402
4.712	1151.83108
4.936	1128.78786
5.161	1108.90204
5.385	1169.52747
5.609	1098.97069
5.833	1172.01267
6.057	1226.10819
6.281	1189.74921
6.505	1283.75664
6.729	1134.32405
6.953	1431.31523
7.177	1093.85238
7.401	1152.00846
7.625	1213.12398
7.849	1245.63266
8.073	1328.03093
8.297	1297.49805
8.521	1319.03384
8.744	1277.49261
8.968	1340.25014
9.192	1324.72304
9.416	1376.36342
9.64	1308.37489
9.863	1438.14302
10.087	1235.1953
10.311	1283.57905
10.535	1168.16062
10.758	1347.31495
10.982	1300.23503
11.205	1242.81253
11.429	1390.26542
11.653	1334.83038
11.876	1295.55616
12.1	1296.81036
12.323	1401.8302
12.547	1336.01721
12.77	1457.91273
12.994	1322.83761
13.217	1417.58943
13.441	1384.70971
13.664	1479.86707
13.887	1354.09162
14.111	1467.00474
14.334	1309.10033
14.557	1339.23041
14.781	1498.68303
15.004	1429.6885
15.227	1287.71889
15.451	1449.32496
15.674	1387.92141
15.897	1353.08658
16.12	1534.82731
16.343	1407.93751
16.567	1585.77704
16.79	1463.60639
17.013	1569.96642
17.236	1539.82304
17.459	1573.89746
17.682	1541.60001
17.905	1707.05457
18.128	1760.02983
18.351	1740.07192
18.574	1631.38719
18.797	1745.79981
19.02	1787.60936
19.243	1784.35008
19.466	1681.6437
19.689	1785.355
19.911	1890.71695
20.134	1919.45188
20.357	2027.83523
20.58	1809.5885
20.803	2079.42687
21.025	1948.12854
21.248	2077.08195
21.471	2080.03675
21.694	2038.64545
21.916	2167.76565
22.139	2366.59872
22.362	2316.63631
22.584	2342.86341
22.807	2443.24233
23.029	2477.81323
23.252	2320.52042
23.475	2773.17235
23.697	2849.49541
23.92	2860.53434
24.142	2757.23001
24.365	2926.29624
24.587	3000.10264
24.809	3109.88392
25.032	3086.51168
25.254	3246.12064
25.477	3467.63138
25.699	3660.67768
25.921	3785.57927
26.144	3854.99204
26.366	3898.73669
26.588	4098.78443
26.81	4405.47736
27.033	4485.19081
27.255	4465.95262
27.477	4895.22187
27.699	5026.04879
27.921	5101.60664
28.144	5324.56061
28.366	5661.058
28.588	5867.84089
28.81	6033.24971
29.032	6587.29366
29.254	6683.17919
29.476	6917.5805
29.698	7308.51295
29.92	7583.51702
30.142	8005.86261
30.364	8202.04995
30.586	8646.16855
30.808	9012.39825
31.029	9298.59598
31.251	9711.58818
31.473	10035.36994
31.695	10632.93562
31.917	10819.14701
32.139	11034.19513
32.36	11613.72858
32.582	12187.67463
32.804	12462.67103
33.026	12894.72005
33.247	13450.71681
33.469	13851.11352
33.691	14508.96049
33.912	15200.94992
34.134	15279.57574
34.355	15492.23874
34.577	16193.66554
34.798	16832.65994
35.02	17377.41971
35.242	17025.134
35.463	18647.89453
35.684	18599.52361
35.906	19105.13117
36.127	19928.40812
36.349	20072.5167
36.57	21285.67883
36.792	22694.65546
37.013	22771.98291
37.234	22393.4563
37.456	23570.80603
37.677	24693.78566
37.898	24935.53845
38.119	25310.41276
38.341	26445.86167
38.562	27270.98541
38.783	27871.13741
39.004	27575.49262
39.225	28902.76859
39.447	29856.02877
39.668	31189.44829
39.889	31318.84998
40.11	32339.12864
40.331	33241.34707
40.552	33987.63506
40.773	35004.81363
40.994	36132.22584
41.215	36847.38509
41.436	37812.64154
41.657	38679.7938
41.878	39966.01237
42.099	41286.87822
42.32	43137.82119
42.54	44541.08749
42.761	45507.95704
42.982	47114.29999
43.203	48826.89947
43.424	50375.65738
43.645	50410.09823
43.865	52976.06265
44.086	53045.18726
44.307	55119.9002
44.527	56631.04357
44.748	58055.20198
44.969	59242.7501
45.189	58354.85357
45.41	58560.78504
45.631	61515.24287
45.851	60928.5981
46.072	61943.98037
46.292	62632.5223
46.513	62742.34645
46.733	65586.97241
46.954	65712.87067
47.174	65774.87496
47.395	65793.27228
47.615	65644.13196
47.836	65637.26696
48.056	65745.00441
48.276	65701.40296
48.497	65634.97898
48.717	65639.55512
48.937	65598.39548
49.158	65719.75347
49.378	65717.45902
49.598	65692.23204
49.818	65621.25485
50.038	65625.82885
50.259	65733.52398
50.479	65770.27747
50.699	65699.10996
50.919	65694.5245
51.139	65676.18989
51.359	65703.69614
51.579	65722.0481
51.799	65719.75347
52.02	65705.9895
52.24	65669.31738
52.46	65710.57676
52.68	65726.6379
52.899	65671.60803
53.119	65696.81714
53.339	65738.1156
53.559	65687.64767
53.779	65607.53711
53.999	65628.11612
54.219	65564.13946
54.439	65749.59787
54.658	65784.07214
54.878	65685.35575
55.098	65724.34291
55.318	65662.44648
55.538	65634.97898
55.757	65685.35575
55.977	65696.81714
56.197	65625.82885
56.416	65699.10996
56.636	65696.81714
56.855	65719.75347
57.075	65634.97898
57.295	65731.22844
57.514	65772.57612
57.734	65669.31738
57.953	65685.35575
58.173	65676.18989
58.392	65712.87067
58.612	65722.0481
58.831	65726.6379
59.051	65664.7366
59.27	65598.39548
59.489	65680.77246
59.709	65694.5245
59.928	65715.16475
60.147	65699.10996
60.367	65724.34291
60.586	65646.42065
60.805	65705.9895
61.024	65687.64767
61.244	65767.979
61.463	65701.40296
61.682	65678.48108
61.901	65667.0269
62.12	65724.34291
62.34	65687.64767
62.559	65692.23204
62.778	65568.70464
62.997	65712.87067
63.216	65756.48942
63.435	65749.59787
63.654	65598.39548
63.873	65710.57676
64.092	65696.81714
64.311	65637.26696
64.53	65676.18989
64.749	65694.5245
64.968	65683.06402
65.187	65779.47318
65.405	65696.81714
65.624	65692.23204
65.843	65671.60803
66.062	65680.77246
66.281	65644.13196
66.499	65767.979
66.718	65749.59787
66.937	65667.0269
67.156	65683.06402
67.374	65722.0481
67.593	65584.68833
67.812	65692.23204
68.03	65703.69614
68.249	65751.89487
68.467	65722.0481
68.686	65655.57719
68.905	65644.13196
69.123	65813.98341
69.342	65687.64767
69.56	65717.45902
69.779	65790.97196
69.997	65664.7366
70.216	65705.9895
70.434	65680.77246
70.652	65650.99856
70.871	65696.81714
71.089	65724.34291
71.307	65765.68072
71.526	65673.89887
71.744	65731.22844
71.962	65724.34291
72.181	65728.93308
72.399	65722.0481
72.617	65678.48108
72.835	65662.44648
73.054	65731.22844
73.272	65708.28304
73.49	65719.75347
73.708	65772.57612
73.926	65763.38262
74.144	65758.78697
74.362	65673.89887
74.58	65708.28304
74.798	65705.9895
75.016	65689.93977
75.234	65722.0481
75.452	65696.81714
75.67	65660.15654
75.888	65733.52398
76.106	65634.97898
76.324	65767.979
76.542	65772.57612
76.76	65692.23204
76.978	65703.69614
77.196	65735.8197
77.413	65662.44648
77.631	65639.55512
77.849	65747.30105
78.067	65657.86678
78.284	65655.57719
78.502	65712.87067
78.72	65712.87067
78.938	65767.979
79.155	65749.59787
79.373	65703.69614
79.59	65749.59787
79.808	65712.87067
80.026	65738.1156
80.243	65722.0481
80.461	65612.10898
80.678	65596.11051
80.896	65655.57719
81.113	65685.35575
81.331	65717.45902
81.548	65511.68986
81.766	65650.99856
81.983	65673.89887
82.2	65724.34291
82.418	65779.47318
82.635	65644.13196
82.852	65548.1668
83.07	65694.5245
83.287	65705.9895
83.504	65671.60803
83.722	65598.39548
83.939	65687.64767
84.156	65591.54111
84.373	65745.00441
84.591	65703.69614
84.808	65689.93977
85.025	65650.99856
85.242	65724.34291
85.459	65683.06402
85.676	65694.5245
85.893	65761.0847
86.11	65676.18989
86.327	65678.48108
86.544	65689.93977
86.761	65719.75347
86.978	65650.99856
87.195	65685.35575
87.412	65795.57277
87.629	65740.41169
87.846	65701.40296
88.063	65616.68156
88.28	65694.5245
88.497	65703.69614
88.713	65733.52398
88.93	65758.78697
89.147	65719.75347
89.364	65660.15654
89.58	65687.64767
89.797	65660.15654
90.014	65689.93977
90.231	65637.26696
90.447	65715.16475
90.664	65660.15654
90.881	65669.31738
91.097	65623.54176
91.314	65630.40356
91.53	65708.28304
91.747	65678.48108
91.963	65742.70796
92.18	65694.5245
92.396	65694.5245
92.613	65680.77246
92.829	65779.47318
93.046	65763.38262
93.262	65754.19205
93.479	65662.44648
93.695	65669.31738
93.911	65703.69614
94.128	65754.19205
94.344	65616.68156
94.56	65655.57719
94.777	65802.47537
94.993	65733.52398
95.209	65628.11612
95.426	65475.25712
95.642	65756.48942
95.858	65717.45902
96.074	65701.40296
96.29	65767.979
96.506	65696.81714
96.723	65678.48108
96.939	65749.59787
97.155	65738.1156
97.371	65687.64767
97.587	65719.75347
97.803	65722.0481
98.019	65712.87067
98.235	65655.57719
98.451	65745.00441
98.667	65598.39548
98.883	65735.8197
99.099	65767.979
99.315	65740.41169
99.53	65680.77246
99.746	65712.87067
99.962	65747.30105
100.178	65703.69614
100.394	65705.9895
100.61	65772.57612
100.825	65657.86678
101.041	65735.8197
101.257	65683.06402
101.473	65687.64767
101.688	65669.31738
101.904	65726.6379
102.12	65694.5245
102.335	65680.77246
102.551	65726.6379
102.766	65634.97898
102.982	65712.87067
103.198	65733.52398
103.413	65692.23204
103.629	65724.34291
103.844	65717.45902
104.06	65705.9895
104.275	65653.28779
104.49	65671.60803
104.706	65745.00441
104.921	65108.77728
105.137	65692.23204
105.352	65625.82885
105.567	65705.9895
105.783	65683.06402
105.998	65676.18989
106.213	65657.86678
106.429	65742.70796
106.644	65726.6379
106.859	65685.35575
107.074	65559.57497
107.29	65745.00441
107.505	65710.57676
107.72	65639.55512
107.935	65644.13196
108.15	65676.18989
108.365	65756.48942
108.58	65653.28779
108.795	65646.42065
109.01	65653.28779
109.226	65777.17398
109.441	65539.0434
109.656	65756.48942
109.871	65589.25667
110.085	65657.86678
110.3	65687.64767
110.515	65765.68072
110.73	65602.96594
110.945	65715.16475
111.16	65657.86678
111.375	65662.44648
111.59	65710.57676
111.804	65680.77246
112.019	65683.06402
112.234	65719.75347
112.449	65657.86678
112.663	65696.81714
112.878	65719.75347
113.093	65699.10996
113.308	65612.10898
113.522	65696.81714
113.737	65818.58792
113.951	65667.0269
114.166	65699.10996
114.381	65687.64767
114.595	65710.57676
114.81	65680.77246
115.024	65694.5245
115.239	65667.0269
115.453	65728.93308
115.668	65712.87067
115.882	65660.15654
116.097	65712.87067
116.311	65795.57277
116.525	65687.64767
116.74	65802.47537
116.954	65650.99856
117.169	65699.10996
117.383	65680.77246
117.597	65637.26696
117.811	65696.81714
118.026	65612.10898
118.24	65648.70952
118.454	65701.40296
118.668	65703.69614
118.883	65703.69614
119.097	65685.35575
119.311	65685.35575
119.525	65687.64767
119.739	65692.23204
119.953	65712.87067
120.167	65570.9875
120.381	65722.0481
120.595	65687.64767
120.809	65728.93308
121.023	65673.89887
121.237	65712.87067
121.451	65722.0481
121.665	65717.45902
121.879	65685.35575
122.093	65621.25485
122.307	65793.27228
122.521	65733.52398
122.735	65621.25485
122.949	65717.45902
123.163	65772.57612
123.376	65655.57719
123.59	65634.97898
123.804	65692.23204
124.018	65728.93308
124.231	65740.41169
124.445	65763.38262
124.659	65618.96812
124.872	65600.68062
125.086	65696.81714
125.3	65692.23204
125.513	65673.89887
125.727	65728.93308
125.94	65676.18989
126.154	65696.81714
126.368	65745.00441
126.581	65719.75347
126.795	65728.93308
127.008	65724.34291
127.222	65756.48942
127.435	65745.00441
127.648	65742.70796
127.862	65671.60803
128.075	65735.8197
128.289	65653.28779
128.502	65747.30105
128.715	65683.06402
128.929	65797.87345
129.142	65724.34291
129.355	65694.5245
129.568	65632.69118
129.782	65671.60803
129.995	65616.68156
130.208	65717.45902
130.421	65738.1156
130.634	65731.22844
130.848	65653.28779
131.061	65616.68156
131.274	65657.86678
131.487	65756.48942
131.7	65728.93308
131.913	65655.57719
132.126	65701.40296
132.339	65605.25144
132.552	65516.24705
132.765	65623.54176
132.978	65701.40296
133.191	65724.34291
133.404	65660.15654
133.617	65719.75347
133.83	65671.60803
134.043	65749.59787
134.255	65774.87496
134.468	65673.89887
134.681	65770.27747
134.894	65811.68143
135.107	65740.41169
135.319	65662.44648
135.532	65689.93977
135.745	65655.57719
135.958	65708.28304
136.17	65781.77257
136.383	65685.35575
136.596	65733.52398
136.808	65705.9895
137.021	65644.13196
137.233	65735.8197
137.446	65678.48108
137.659	65717.45902
137.871	65568.70464
138.084	65708.28304
138.296	65669.31738
138.509	65703.69614
138.721	65738.1156
138.934	65685.35575
139.146	65671.60803
139.358	65731.22844
139.571	65609.82296
139.783	65614.39518
139.996	65689.93977
140.208	65634.97898
140.42	65641.84345
140.632	65669.31738
140.845	65722.0481
141.057	65781.77257
141.269	65728.93308
141.481	65703.69614
141.694	65749.59787
141.906	65683.06402
142.118	65800.17432
142.33	65676.18989
142.542	65756.48942
142.754	65664.7366
142.967	65788.67184
143.179	65742.70796
143.391	65630.40356
143.603	65722.0481
143.815	65618.96812
144.027	65699.10996
144.239	65591.54111
144.451	65689.93977
144.663	65701.40296
144.875	65625.82885
145.086	65593.82573
145.298	65646.42065
145.51	65724.34291
145.722	65628.11612
145.934	65717.45902
146.146	65722.0481
146.358	65705.9895
146.569	65756.48942
146.781	65671.60803
146.993	65754.19205
147.205	65607.53711
147.416	65708.28304
147.628	65699.10996
147.84	65657.86678
148.051	65705.9895
148.263	65671.60803
148.475	65745.00441
148.686	65710.57676
148.898	65634.97898
149.109	65618.96812
149.321	65747.30105
149.532	65625.82885
149.744	65683.06402
149.955	65660.15654
150.167	65715.16475
150.378	65701.40296
150.59	65731.22844
150.801	65770.27747
151.013	65756.48942
151.224	65618.96812
151.435	65705.9895
151.647	65618.96812
151.858	65673.89887
152.069	65705.9895
152.281	65708.28304
152.492	65678.48108
152.703	65712.87067
152.914	65577.83713
153.126	65673.89887
153.337	65678.48108
153.548	65774.87496
153.759	65669.31738
153.97	65754.19205
154.181	65738.1156
154.392	65648.70952
154.604	65765.68072
154.815	65728.93308
155.026	65662.44648
155.237	65705.9895
155.448	65598.39548
155.659	65680.77246
155.87	65687.64767
156.081	65667.0269
156.292	65735.8197
156.502	65767.979
156.713	65664.7366
156.924	65641.84345
157.135	65685.35575
157.346	65701.40296
157.557	65664.7366
157.768	65731.22844
157.978	65772.57612
158.189	65676.18989
158.4	65738.1156
158.611	65676.18989
158.821	65625.82885
159.032	65715.16475
159.243	65646.42065
159.453	65694.5245
159.664	65694.5245
159.875	65655.57719
160.085	65731.22844
160.296	65655.57719
160.507	65715.16475
160.717	65740.41169
160.928	65653.28779
161.138	65857.75642
161.349	65712.87067
161.559	65779.47318
161.77	65710.57676
161.98	65733.52398
162.19	65660.15654
162.401	65715.16475
162.611	65648.70952
162.822	65722.0481
163.032	65715.16475
163.242	65728.93308
163.453	65648.70952
163.663	65751.89487
163.873	65676.18989
164.084	65738.1156
164.294	65749.59787
164.504	65699.10996
164.714	65680.77246
164.924	65683.06402
165.135	65733.52398
165.345	65653.28779
165.555	65692.23204
165.765	65639.55512
165.975	65648.70952
166.185	65696.81714
166.395	65724.34291
166.605	65765.68072
166.815	65754.19205
167.025	65712.87067
167.235	65614.39518
167.445	65811.68143
167.655	65676.18989
167.865	65705.9895
168.075	65689.93977
168.285	65705.9895
168.495	65687.64767
168.705	65623.54176
168.915	65598.39548
169.124	65662.44648
169.334	65664.7366
169.544	65669.31738
169.754	65705.9895
169.964	65660.15654
170.173	65634.97898
170.383	65680.77246
170.593	65687.64767
170.802	65644.13196
171.012	65747.30105
171.222	65710.57676
171.431	65751.89487
171.641	65717.45902
171.851	65772.57612
172.06	65731.22844
172.27	65733.52398
172.479	65667.0269
172.689	65728.93308
172.898	65676.18989
173.108	65719.75347
173.317	65653.28779
173.527	65758.78697
173.736	65763.38262
173.945	65689.93977
174.155	65650.99856
174.364	65653.28779
174.574	65689.93977
174.783	65701.40296
174.992	65639.55512
175.202	65699.10996
175.411	65641.84345
175.62	65728.93308
175.829	65742.70796
176.039	65678.48108
176.248	65648.70952
176.457	65701.40296
176.666	65616.68156
176.875	65733.52398
177.084	65662.44648
177.294	65740.41169
177.503	65754.19205
177.712	65612.10898
177.921	65735.8197
178.13	65703.69614
178.339	65790.97196
178.548	65724.34291
178.757	65692.23204
178.966	65653.28779
179.175	65667.0269
179.384	65710.57676
179.593	65687.64767
179.802	65765.68072
180.011	65692.23204
180.219	65712.87067
180.428	65683.06402
180.637	65683.06402
180.846	65653.28779
181.055	65685.35575
181.263	65710.57676
181.472	65607.53711
181.681	65740.41169
181.89	65676.18989
182.098	65609.82296
182.307	65717.45902
182.516	65678.48108
182.724	65694.5245
182.933	65657.86678
183.142	65781.77257
183.35	65678.48108
183.559	65685.35575
183.767	65701.40296
183.976	65731.22844
184.184	65745.00441
184.393	65671.60803
184.601	65731.22844
184.81	65612.10898
185.018	65735.8197
185.227	65673.89887
185.435	65754.19205
185.644	65657.86678
185.852	65800.17432
186.06	65655.57719
186.269	65655.57719
186.477	65650.99856
186.685	65699.10996
186.894	65609.82296
187.102	65694.5245
187.31	65625.82885
187.518	65699.10996
187.727	65784.07214
187.935	65761.0847
188.143	65701.40296
188.351	65669.31738
188.559	65761.0847
188.768	65623.54176
188.976	65644.13196
189.184	65660.15654
189.392	65657.86678
189.6	65667.0269
189.808	65586.97241
190.016	65728.93308
190.224	65717.45902
190.432	65687.64767
190.64	65692.23204
190.848	65683.06402
191.056	65634.97898
191.264	65673.89887
191.472	65699.10996
191.679	65715.16475
191.887	65708.28304
192.095	65790.97196
192.303	65671.60803
192.511	65722.0481
192.719	65797.87345
192.926	65641.84345
193.134	65797.87345
193.342	65726.6379
193.55	65705.9895
193.757	65699.10996
193.965	65676.18989
194.173	65660.15654
194.38	65765.68072
194.588	65740.41169
194.796	65719.75347
195.003	65644.13196
195.211	65740.41169
195.418	65722.0481
195.626	65788.67184
195.833	65683.06402
196.041	65639.55512
196.248	65699.10996
196.456	65641.84345
196.663	65598.39548
196.871	65728.93308
197.078	65680.77246
197.285	65705.9895
197.493	65680.77246
197.7	65561.85712
197.908	65673.89887
198.115	65715.16475
198.322	65685.35575
198.529	65756.48942
198.737	65774.87496
198.944	65680.77246
199.151	65772.57612
199.358	65738.1156
199.566	65816.28557
199.773	65607.53711
199.98	65703.69614
200.187	65733.52398
200.394	65696.81714
200.601	65575.55374
200.809	65786.3719
201.016	65673.89887
201.223	65667.0269
201.43	65781.77257
201.637	65724.34291
201.844	65728.93308
202.051	65802.47537
202.258	65678.48108
202.465	65719.75347
202.672	65790.97196
202.878	65696.81714
203.085	65724.34291
203.292	65678.48108
203.499	65648.70952
203.706	65696.81714
203.913	65694.5245
204.12	65756.48942
204.326	65738.1156
204.533	65749.59787
204.74	65639.55512
204.947	65687.64767
205.153	65699.10996
205.36	65683.06402
205.567	65788.67184
205.773	65781.77257
205.98	65660.15654
206.187	65703.69614
206.393	65694.5245
206.6	65717.45902
206.806	65758.78697
207.013	65632.69118
207.22	65639.55512
207.426	65749.59787
207.633	65689.93977
207.839	65623.54176
208.046	65655.57719
208.252	65657.86678
208.458	65653.28779
208.665	65680.77246
208.871	65719.75347
209.078	65612.10898
209.284	65703.69614
209.49	65715.16475
209.697	65717.45902
209.903	65756.48942
210.109	65722.0481
210.316	65655.57719
210.522	65735.8197
210.728	65673.89887
210.934	65477.53288
211.14	65717.45902
211.347	65777.17398
211.553	65662.44648
211.759	65685.35575
211.965	65639.55512
212.171	65662.44648
212.377	65628.11612
212.583	65689.93977
212.789	65726.6379
212.996	65676.18989
213.202	65641.84345
213.408	65683.06402
213.614	65689.93977
213.82	65738.1156
214.025	65722.0481
214.231	65767.979
214.437	65726.6379
214.643	65623.54176
214.849	65687.64767
215.055	65694.5245
215.261	65751.89487
215.467	65685.35575
215.672	65765.68072
215.878	65625.82885
216.084	65745.00441
216.29	65685.35575
216.496	65609.82296
216.701	65653.28779
216.907	65747.30105
217.113	65687.64767
217.318	65618.96812
217.524	65731.22844
217.73	65742.70796
217.935	65710.57676
218.141	65657.86678
218.346	65676.18989
218.552	65708.28304
218.758	65676.18989
218.963	65664.7366
219.169	65673.89887
219.374	65685.35575
219.58	65685.35575
219.785	65705.9895
219.991	65632.69118
220.196	65786.3719
220.401	65719.75347
220.607	65689.93977
220.812	65605.25144
221.017	65694.5245
221.223	65641.84345
221.428	65616.68156
221.633	65637.26696
221.839	65685.35575
222.044	65745.00441
222.249	65676.18989
222.454	65669.31738
222.66	65671.60803
222.865	65717.45902
223.07	65570.9875
223.275	65692.23204
223.48	65660.15654
223.686	65745.00441
223.891	65774.87496
224.096	65767.979
224.301	65584.68833
224.506	65740.41169
224.711	65646.42065
224.916	65726.6379
225.121	65719.75347
225.326	65717.45902
225.531	65745.00441
225.736	65724.34291
225.941	65754.19205
226.146	65703.69614
226.351	65673.89887
226.555	65671.60803
226.76	65667.0269
226.965	65770.27747
227.17	65712.87067
227.375	65735.8197
227.58	65719.75347
227.784	65650.99856
227.989	65809.37963
228.194	65731.22844
228.399	65660.15654
228.603	65751.89487
228.808	65726.6379
229.013	65637.26696
229.217	65689.93977
229.422	65742.70796
229.627	65703.69614
229.831	65724.34291
230.036	65655.57719
230.24	65683.06402
230.445	65660.15654
230.649	65683.06402
230.854	65673.89887
231.058	65712.87067
231.263	65701.40296
231.467	65669.31738
231.672	65708.28304
231.876	65689.93977
232.081	65639.55512
232.285	65662.44648
232.489	65660.15654
232.694	65728.93308
232.898	65639.55512
233.102	65596.11051
233.307	65683.06402
233.511	65705.9895
233.715	65657.86678
233.919	65634.97898
234.124	65749.59787
234.328	65788.67184
234.532	65685.35575
234.736	65646.42065
234.94	65740.41169
235.145	65680.77246
235.349	65669.31738
235.553	65575.55374
235.757	65584.68833
235.961	65742.70796
236.165	65735.8197
236.369	65650.99856
236.573	65653.28779
236.777	65749.59787
236.981	65676.18989
237.185	65612.10898
237.389	65710.57676
237.593	65689.93977
237.797	65660.15654
238.001	65655.57719
238.205	65671.60803
238.409	65726.6379
238.612	65731.22844
238.816	65568.70464
239.02	65694.5245
239.224	65708.28304
239.428	65657.86678
239.631	65680.77246
239.835	65664.7366
240.039	65694.5245
240.243	65644.13196
240.446	65618.96812
240.65	65745.00441
240.854	65843.92607
241.057	65669.31738
241.261	65745.00441
241.464	65765.68072
241.668	65641.84345
241.872	65731.22844
242.075	65692.23204
242.279	65680.77246
242.482	65728.93308
242.686	65719.75347
242.889	65628.11612
243.093	65731.22844
243.296	65634.97898
243.499	65692.23204
243.703	65694.5245
243.906	65754.19205
244.11	65664.7366
244.313	65699.10996
244.516	65673.89887
244.72	65634.97898
244.923	65756.48942
245.126	65600.68062
245.33	65671.60803
245.533	65747.30105
245.736	65673.89887
245.939	65710.57676
246.142	65678.48108
246.346	65726.6379
246.549	65772.57612
246.752	65731.22844
246.955	65708.28304
247.158	65667.0269
247.361	65712.87067
247.564	65653.28779
247.767	65612.10898
247.971	65694.5245
248.174	65662.44648
248.377	65712.87067
248.58	65772.57612
248.783	65738.1156
248.985	65699.10996
249.188	65712.87067
249.391	65664.7366
249.594	65694.5245
249.797	65742.70796
250	65614.39518
250.203	65710.57676
250.406	65717.45902
250.609	65745.00441
250.811	65722.0481
251.014	65722.0481
251.217	65754.19205
251.42	65738.1156
251.622	65570.9875
251.825	65634.97898
252.028	65722.0481
252.231	65726.6379
252.433	65740.41169
252.636	65632.69118
252.838	65660.15654
253.041	65696.81714
253.244	65646.42065
253.446	65596.11051
253.649	65683.06402
253.851	65639.55512
254.054	65717.45902
254.256	65630.40356
254.459	65722.0481
254.661	65664.7366
254.864	65742.70796
255.066	65539.0434
255.269	65701.40296
255.471	65667.0269
255.673	65650.99856
255.876	65722.0481
256.078	65667.0269
256.281	65678.48108
256.483	65694.5245
256.685	65749.59787
256.887	65685.35575
257.09	65676.18989
257.292	65740.41169
257.494	65650.99856
257.696	65710.57676
257.899	65740.41169
258.101	65598.39548
258.303	65671.60803
258.505	65770.27747
258.707	65703.69614
258.909	65731.22844
259.111	65790.97196
259.314	65671.60803
259.516	65722.0481
259.718	65634.97898
259.92	65680.77246
260.122	65708.28304
260.324	65722.0481
260.526	65614.39518
260.728	65678.48108
260.93	65660.15654
261.131	65777.17398
261.333	65735.8197
261.535	65699.10996
261.737	65726.6379
261.939	65653.28779
262.141	65689.93977
262.343	65646.42065
262.544	65664.7366
262.746	65664.7366
262.948	65747.30105
263.15	65696.81714
263.352	65625.82885
263.553	65694.5245
263.755	65747.30105
263.957	65621.25485
264.158	65657.86678
264.36	65680.77246
264.562	65644.13196
264.763	65731.22844
264.965	65662.44648
265.166	65715.16475
265.368	65618.96812
265.569	65724.34291
265.771	65719.75347
265.972	65655.57719
266.174	65724.34291
266.375	65710.57676
266.577	65696.81714
266.778	65664.7366
266.98	65694.5245
267.181	65745.00441
267.383	65765.68072
267.584	65616.68156
267.785	65701.40296
267.987	65722.0481
268.188	65770.27747
268.389	65655.57719
268.591	65765.68072
268.792	65763.38262
268.993	65667.0269
269.194	65722.0481
269.396	65630.40356
269.597	65683.06402
269.798	65733.52398
269.999	65680.77246
270.2	65763.38262
270.401	65625.82885
270.603	65724.34291
270.804	65740.41169
271.005	65742.70796
271.206	65694.5245
271.407	65667.0269
271.608	65621.25485
271.809	65699.10996
272.01	65685.35575
272.211	65712.87067
272.412	65650.99856
272.613	65644.13196
272.814	65747.30105
273.015	65719.75347
273.216	65740.41169
273.416	65715.16475
273.617	65639.55512
273.818	65664.7366
274.019	65708.28304
274.22	65648.70952
274.421	65678.48108
274.621	65715.16475
274.822	65680.77246
275.023	65685.35575
275.224	65692.23204
275.424	65774.87496
275.625	65807.07803
275.826	65701.40296
276.026	65745.00441
276.227	65708.28304
276.428	65660.15654
276.628	65653.28779
276.829	65655.57719
277.029	65708.28304
277.23	65685.35575
277.43	65662.44648
277.631	65618.96812
277.831	65777.17398
278.032	65754.19205
278.232	65708.28304
278.433	65724.34291
278.633	65616.68156
278.834	65726.6379
279.034	65655.57719
279.234	65625.82885
279.435	65696.81714
279.635	65676.18989
279.835	65703.69614
280.036	65614.39518
280.236	65788.67184
280.436	65724.34291
280.637	65696.81714
280.837	65630.40356
281.037	65701.40296
281.237	65701.40296
281.438	65715.16475
281.638	65724.34291
281.838	65719.75347
282.038	65719.75347
282.238	65696.81714
282.438	65705.9895
282.638	65703.69614
282.838	65722.0481
283.038	65676.18989
283.239	65717.45902
283.439	65699.10996
283.639	65602.96594
283.839	65733.52398
284.039	65673.89887
284.238	65699.10996
284.438	65655.57719
284.638	65749.59787
284.838	65726.6379
285.038	65728.93308
285.238	65751.89487
285.438	65692.23204
285.638	65689.93977
285.838	65694.5245
286.037	65660.15654
286.237	65733.52398
286.437	65740.41169
286.637	65717.45902
286.836	65715.16475
287.036	65765.68072
287.236	65662.44648
287.436	65749.59787
287.635	65685.35575
287.835	65694.5245
288.034	65699.10996
288.234	65605.25144
288.434	65671.60803
288.633	65708.28304
288.833	65742.70796
289.032	65797.87345
289.232	65685.35575
289.431	65685.35575
289.631	65722.0481
289.83	65616.68156
290.03	65745.00441
290.229	65733.52398
290.429	65804.77661
290.628	65634.97898
290.828	65767.979
291.027	65790.97196
291.226	65717.45902
291.426	65678.48108
291.625	65561.85712
291.824	65712.87067
292.024	65712.87067
292.223	65745.00441
292.422	65703.69614
292.621	65722.0481
292.821	65669.31738
293.02	65708.28304
293.219	65637.26696
293.418	65742.70796
293.617	65648.70952
293.817	65735.8197
294.016	65607.53711
294.215	65639.55512
294.414	65781.77257
294.613	65717.45902
294.812	65703.69614
295.011	65731.22844
295.21	65680.77246
295.409	65770.27747
295.608	65816.28557
295.807	65735.8197
296.006	65671.60803
296.205	65705.9895
296.404	65570.9875
296.603	65724.34291
296.802	65609.82296
297.001	65733.52398
297.2	65731.22844
297.398	65749.59787
297.597	65637.26696
297.796	65774.87496
297.995	65758.78697
298.194	65655.57719
298.392	65719.75347
298.591	65712.87067
298.79	65756.48942
298.988	65724.34291
299.187	65719.75347
299.386	65689.93977
299.585	65708.28304
299.783	65692.23204
299.982	65628.11612
300.18	65726.6379
300.379	65715.16475
300.578	65717.45902
300.776	65774.87496
300.975	65680.77246
301.173	65623.54176
301.372	65708.28304
301.57	65726.6379
301.769	65731.22844
301.967	65660.15654
302.166	65708.28304
302.364	65751.89487
302.562	65703.69614
302.761	65657.86678
302.959	65712.87067
303.157	65667.0269
303.356	65740.41169
303.554	65648.70952
303.752	65708.28304
303.951	65673.89887
304.149	65586.97241
304.347	65680.77246
304.546	65650.99856
304.744	65687.64767
304.942	65671.60803
305.14	65740.41169
305.338	65765.68072
305.536	65717.45902
305.735	65719.75347
305.933	65726.6379
306.131	65735.8197
306.329	65648.70952
306.527	65765.68072
306.725	65712.87067
306.923	65660.15654
307.121	65602.96594
307.319	65738.1156
307.517	65740.41169
307.715	65689.93977
307.913	65580.12068
308.111	65667.0269
308.309	65683.06402
308.507	65715.16475
308.705	65703.69614
308.903	65758.78697
309.1	65639.55512
309.298	65644.13196
309.496	65685.35575
309.694	65722.0481
309.892	65747.30105
310.089	65754.19205
310.287	65703.69614
310.485	65733.52398
310.683	65689.93977
310.88	65708.28304
311.078	65715.16475
311.276	65650.99856
311.473	65701.40296
311.671	65692.23204
311.869	65648.70952
312.066	65699.10996
312.264	65696.81714
312.461	65618.96812
312.659	65639.55512
312.856	65650.99856
313.054	65728.93308
313.251	65724.34291
313.449	65637.26696
313.646	65705.9895
313.844	65749.59787
314.041	65705.9895
314.239	65634.97898
314.436	65625.82885
314.634	65593.82573
314.831	65650.99856
315.028	65772.57612
315.226	65705.9895
315.423	65634.97898
315.62	65740.41169
315.817	65687.64767
316.015	65580.12068
316.212	65735.8197
316.409	65655.57719
316.606	65671.60803
316.804	65717.45902
317.001	65751.89487
317.198	65653.28779
317.395	65653.28779
317.592	65653.28779
317.789	65703.69614
317.987	65680.77246
318.184	65733.52398
318.381	65770.27747
318.578	65655.57719
318.775	65765.68072
318.972	65761.0847
319.169	65758.78697
319.366	65650.99856
319.563	65687.64767
319.76	65726.6379
319.957	65717.45902
320.154	65731.22844
320.351	65648.70952
320.547	65671.60803
320.744	65710.57676
320.941	65589.25667
321.138	65703.69614
321.335	65689.93977
321.532	65738.1156
321.728	65657.86678
321.925	65756.48942
322.122	65577.83713
322.319	65804.77661
322.515	65648.70952
322.712	65662.44648
322.909	65774.87496
323.105	65779.47318
323.302	65639.55512
323.499	65618.96812
323.695	65667.0269
323.892	65696.81714
324.089	65653.28779
324.285	65719.75347
324.482	65728.93308
324.678	65779.47318
324.875	65733.52398
325.071	65683.06402
325.268	65687.64767
325.464	65712.87067
325.661	65692.23204
325.857	65705.9895
326.054	65740.41169
326.25	65667.0269
326.446	65664.7366
326.643	65685.35575
326.839	65708.28304
327.035	65788.67184
327.232	65639.55512
327.428	65784.07214
327.624	65777.17398
327.821	65694.5245
328.017	65754.19205
328.213	65731.22844
328.409	65694.5245
328.606	65673.89887
328.802	65676.18989
328.998	65710.57676
329.194	65772.57612
329.39	65650.99856
329.586	65694.5245
329.783	65655.57719
329.979	65683.06402
330.175	65712.87067
330.371	65694.5245
330.567	65710.57676
330.763	65683.06402
330.959	65747.30105
331.155	65719.75347
331.351	65728.93308
331.547	65664.7366
331.743	65804.77661
331.939	65701.40296
332.135	65728.93308
332.33	65628.11612
332.526	65692.23204
332.722	65676.18989
332.918	65644.13196
333.114	65747.30105
333.31	65591.54111
333.506	65618.96812
333.701	65696.81714
333.897	65807.07803
334.093	65653.28779
334.289	65758.78697
334.484	65593.82573
334.68	65609.82296
334.876	65637.26696
335.071	65703.69614
335.267	65632.69118
335.463	65715.16475
335.658	65712.87067
335.854	65823.19318
336.049	65699.10996
336.245	65728.93308
336.441	65724.34291
336.636	65676.18989
336.832	65657.86678
337.027	65575.55374
337.223	65763.38262
337.418	65621.25485
337.613	65754.19205
337.809	65671.60803
338.004	65747.30105
338.2	65689.93977
338.395	65740.41169
338.591	65646.42065
338.786	65754.19205
338.981	65749.59787
339.177	65758.78697
339.372	65685.35575
339.567	65625.82885
339.762	65657.86678
339.958	65825.49609
340.153	65784.07214
340.348	65156.04443
340.543	65705.9895
340.739	65749.59787
340.934	65719.75347
341.129	65667.0269
341.324	65667.0269
341.519	65774.87496
341.714	65839.31746
341.909	65754.19205
342.104	65694.5245
342.299	65703.69614
342.495	65726.6379
342.69	65745.00441
342.885	65731.22844
343.08	65445.68779
343.275	65612.10898
343.469	65715.16475
343.664	65660.15654
343.859	65703.69614
344.054	65765.68072
344.249	65747.30105
344.444	65692.23204
344.639	65726.6379
344.834	65751.89487
345.029	65699.10996
345.223	65673.89887
345.418	65754.19205
345.613	65685.35575
345.808	65703.69614
346.003	65708.28304
346.197	65703.69614
346.392	65687.64767
346.587	65591.54111
346.781	65717.45902
346.976	65676.18989
347.171	65621.25485
347.365	65726.6379
347.56	65724.34291
347.755	65646.42065
347.949	65722.0481
348.144	65751.89487
348.338	65689.93977
348.533	65685.35575
348.727	65735.8197
348.922	65653.28779
349.116	65767.979
349.311	65696.81714
349.505	65767.979
349.7	65751.89487
349.894	65740.41169
350.089	65676.18989
350.283	65710.57676
350.477	65694.5245
350.672	65712.87067
350.866	65634.97898
351.06	65689.93977
351.255	65694.5245
351.449	65699.10996
351.643	65699.10996
351.837	65655.57719
352.032	65795.57277
352.226	65745.00441
352.42	65749.59787
352.614	65632.69118
352.809	65735.8197
353.003	65692.23204
353.197	65678.48108
353.391	65715.16475
353.585	65680.77246
353.779	65777.17398
353.973	65632.69118
354.167	65669.31738
354.361	65756.48942
354.555	65644.13196
354.749	65712.87067
354.943	65735.8197
355.137	65671.60803
355.331	65719.75347
355.525	65733.52398
355.719	65671.60803
355.913	65710.57676
356.107	65683.06402
356.301	65712.87067
356.495	65708.28304
356.689	65699.10996
356.883	65671.60803
357.076	65767.979
357.27	65637.26696
357.464	65733.52398
357.658	65634.97898
357.852	65705.9895
358.045	65673.89887
358.239	65747.30105
358.433	65722.0481
358.626	65733.52398
358.82	65705.9895
359.014	65685.35575
359.207	65694.5245
359.401	65786.3719
359.595	65673.89887
359.788	65726.6379
359.982	65699.10996
360.175	65664.7366
360.369	65722.0481
360.563	65694.5245
360.756	65705.9895
360.95	65683.06402
361.143	65793.27228
361.336	65843.92607
361.53	65749.59787
361.723	65735.8197
361.917	65678.48108
362.11	65738.1156
362.304	65712.87067
362.497	65703.69614
362.69	65577.83713
362.884	65687.64767
363.077	65726.6379
363.27	65719.75347
363.464	65694.5245
363.657	65735.8197
363.85	65653.28779
364.043	65722.0481
364.237	65694.5245
364.43	65667.0269
364.623	65662.44648
364.816	65751.89487
365.009	65641.84345
365.202	65726.6379
365.396	65625.82885
365.589	65687.64767
365.782	65687.64767
365.975	65767.979
366.168	65657.86678
366.361	65621.25485
366.554	65703.69614
366.747	65735.8197
366.94	65669.31738
367.133	65708.28304
367.326	65719.75347
367.519	65722.0481
367.712	65830.10246
367.905	65717.45902
368.098	65742.70796
368.291	65600.68062
368.484	65703.69614
368.676	65673.89887
368.869	65774.87496
369.062	65715.16475
369.255	65699.10996
369.448	65662.44648
369.64	65687.64767
369.833	65726.6379
370.026	65653.28779
370.219	65770.27747
370.411	65598.39548
370.604	65784.07214
370.797	65687.64767
370.989	65660.15654
371.182	65777.17398
371.375	65648.70952
371.567	65678.48108
371.76	65710.57676
371.952	65779.47318
372.145	65683.06402
372.338	65676.18989
372.53	65685.35575
372.723	65763.38262
372.915	65710.57676
373.108	65738.1156
373.3	65671.60803
373.493	65664.7366
373.685	65662.44648
373.877	65756.48942
374.07	65646.42065
374.262	65637.26696
374.455	65747.30105
374.647	65804.77661
374.839	65639.55512
375.032	65694.5245
375.224	65694.5245
375.416	65754.19205
375.609	65257.56711
375.801	65701.40296
375.993	65747.30105
376.185	65758.78697
376.378	65710.57676
376.57	65689.93977
376.762	65685.35575
376.954	65671.60803
377.146	65657.86678
377.338	65749.59787
377.53	65740.41169
377.723	65655.57719
377.915	65745.00441
378.107	65703.69614
378.299	65735.8197
378.491	65731.22844
378.683	65685.35575
378.875	65726.6379
379.067	65637.26696
379.259	65664.7366
379.451	65712.87067
379.643	65648.70952
379.835	65678.48108
380.027	65632.69118
380.219	65745.00441
380.41	65699.10996
380.602	65692.23204
380.794	65790.97196
380.986	65735.8197
381.178	65705.9895
381.37	65712.87067
381.561	65696.81714
381.753	65614.39518
381.945	65628.11612
382.137	65694.5245
382.328	65724.34291
382.52	65735.8197
382.712	65728.93308
382.903	65632.69118
383.095	65715.16475
383.287	65761.0847
383.478	65673.89887
383.67	65733.52398
383.862	65692.23204
384.053	65685.35575
384.245	65731.22844
384.436	65662.44648
384.628	65689.93977
384.819	65717.45902
385.011	65657.86678
385.202	65710.57676
385.394	65731.22844
385.585	65605.25144
385.777	65726.6379
385.968	65767.979
386.159	65703.69614
386.351	65696.81714
386.542	65669.31738
386.734	65621.25485
386.925	65722.0481
387.116	65680.77246
387.308	65685.35575
387.499	65747.30105
387.69	65662.44648
387.881	65621.25485
388.073	65696.81714
388.264	65694.5245
388.455	65781.77257
388.646	65648.70952
388.837	65667.0269
389.029	65689.93977
389.22	65715.16475
389.411	65735.8197
389.602	65692.23204
389.793	65726.6379
389.984	65705.9895
390.175	65676.18989
390.366	65662.44648
390.557	65758.78697
390.748	65699.10996
390.939	65774.87496
391.13	65722.0481
391.321	65685.35575
391.512	65717.45902
391.703	65703.69614
391.894	65731.22844
392.085	65754.19205
392.276	65745.00441
392.467	65758.78697
392.658	65740.41169
392.849	65694.5245
393.039	65724.34291
393.23	65708.28304
393.421	65683.06402
393.612	65699.10996
393.803	65705.9895
393.993	65605.25144
394.184	65669.31738
394.375	65756.48942
394.566	65694.5245
394.756	65683.06402
394.947	65646.42065
395.138	65728.93308
395.328	65632.69118
395.519	65653.28779
395.709	65758.78697
395.9	65600.68062
396.091	65728.93308
396.281	65731.22844
396.472	65724.34291
396.662	65749.59787
396.853	65740.41169
397.043	65722.0481
397.234	65726.6379
397.424	65680.77246
397.615	65680.77246
397.805	65689.93977
397.996	65779.47318
398.186	65644.13196
398.376	65625.82885
398.567	65738.1156
398.757	65708.28304
398.947	65839.31746
399.138	65655.57719
399.328	65644.13196
399.518	65761.0847
399.709	65790.97196
399.899	65703.69614
400.089	65740.41169
400.279	65694.5245
400.47	65701.40296
400.66	65699.10996
400.85	65628.11612
401.04	65664.7366
401.23	65639.55512
401.421	65678.48108
401.611	65722.0481
401.801	65662.44648
401.991	65694.5245
402.181	65712.87067
402.371	65680.77246
402.561	65632.69118
402.751	65715.16475
402.941	65667.0269
403.131	65625.82885
403.321	65735.8197
403.511	65685.35575
403.701	65655.57719
403.891	65694.5245
404.081	65692.23204
404.271	65742.70796
404.461	65623.54176
404.651	65751.89487
404.84	65673.89887
405.03	65664.7366
405.22	65740.41169
405.41	65728.93308
405.6	65641.84345
405.789	65646.42065
405.979	65630.40356
406.169	65770.27747
406.359	65703.69614
406.548	65754.19205
406.738	65754.19205
406.928	65628.11612
407.118	65662.44648
407.307	65648.70952
407.497	65696.81714
407.686	65639.55512
407.876	65747.30105
408.066	65726.6379
408.255	65735.8197
408.445	65728.93308
408.634	65655.57719
408.824	65676.18989
409.013	65719.75347
409.203	65641.84345
409.392	65676.18989
409.582	65680.77246
409.771	65774.87496
409.961	65733.52398
410.15	65662.44648
410.34	65673.89887
410.529	65749.59787
410.718	65689.93977
410.908	65561.85712
411.097	65749.59787
411.286	65733.52398
411.476	65763.38262
411.665	65724.34291
411.854	65715.16475
412.044	65758.78697
412.233	65673.89887
412.422	65673.89887
412.611	65692.23204
412.8	65650.99856
412.99	65738.1156
413.179	65657.86678
413.368	65731.22844
413.557	65756.48942
413.746	65708.28304
413.935	65731.22844
414.124	65777.17398
414.313	65641.84345
414.503	65676.18989
414.692	65733.52398
414.881	65621.25485
415.07	65637.26696
415.259	65710.57676
415.448	65634.97898
415.637	65692.23204
415.826	65673.89887
416.015	65765.68072
416.203	65710.57676
416.392	65660.15654
416.581	65722.0481
416.77	65680.77246
416.959	65669.31738
417.148	65728.93308
417.337	65740.41169
417.525	65685.35575
417.714	65667.0269
417.903	65745.00441
418.092	65740.41169
418.281	65673.89887
418.469	65683.06402
418.658	65687.64767
418.847	65717.45902
419.035	65751.89487
419.224	65765.68072
419.413	65742.70796
419.601	65685.35575
419.79	65774.87496
419.979	65710.57676
420.167	65745.00441
420.356	65708.28304
420.544	65671.60803
420.733	65740.41169
420.921	65719.75347
421.11	65671.60803
421.299	65657.86678
421.487	65701.40296
421.675	65696.81714
421.864	65705.9895
422.052	65724.34291
422.241	65605.25144
422.429	65717.45902
422.618	65708.28304
422.806	65685.35575
422.994	65717.45902
423.183	65662.44648
423.371	65717.45902
423.559	65676.18989
423.748	65648.70952
423.936	65722.0481
424.124	65807.07803
424.312	65742.70796
424.501	65685.35575
424.689	65708.28304
424.877	65705.9895
425.065	65703.69614
425.254	65722.0481
425.442	65559.57497
425.63	65628.11612
425.818	65618.96812
426.006	65708.28304
426.194	65614.39518
426.382	65632.69118
426.57	65664.7366
426.758	65680.77246
426.946	65717.45902
427.134	65655.57719
427.323	65733.52398
427.51	65703.69614
427.698	65689.93977
427.886	65660.15654
428.074	65623.54176
428.262	65804.77661
428.45	65694.5245
428.638	65687.64767
428.826	65662.44648
429.014	65735.8197
429.202	65809.37963
429.39	65772.57612
429.577	65632.69118
429.765	65634.97898
429.953	65630.40356
430.141	65705.9895
430.329	65662.44648
430.516	65731.22844
430.704	65570.9875
430.892	65719.75347
431.079	65793.27228
431.267	65634.97898
431.455	65770.27747
431.643	65623.54176
431.83	65671.60803
432.018	65660.15654
432.205	65719.75347
432.393	65767.979
432.581	65703.69614
432.768	65634.97898
432.956	65639.55512
433.143	65680.77246
433.331	65653.28779
433.518	65719.75347
433.706	65701.40296
433.893	65593.82573
434.081	65726.6379
434.268	65609.82296
434.456	65742.70796
434.643	65731.22844
434.83	65644.13196
435.018	65644.13196
435.205	65726.6379
435.392	65726.6379
435.58	65800.17432
435.767	65641.84345
435.954	65696.81714
436.142	65634.97898
436.329	65735.8197
436.516	65717.45902
436.703	65660.15654
436.891	65621.25485
437.078	65646.42065
437.265	65641.84345
437.452	65650.99856
437.639	65685.35575
437.827	65667.0269
438.014	65648.70952
438.201	65701.40296
438.388	65644.13196
438.575	65694.5245
438.762	65696.81714
438.949	65710.57676
439.136	65655.57719
439.323	65602.96594
439.51	65703.69614
439.697	65625.82885
439.884	65630.40356
440.071	65655.57719
440.258	65628.11612
440.445	65639.55512
440.632	65445.68779
440.819	65648.70952
441.006	65577.83713
441.193	65662.44648
441.38	65625.82885
441.566	65687.64767
441.753	65696.81714
441.94	65630.40356
442.127	65694.5245
442.314	65614.39518
442.5	65591.54111
442.687	65607.53711
442.874	65634.97898
443.061	65641.84345
443.247	65625.82885
443.434	65536.76298
443.621	65703.69614
443.807	65648.70952
443.994	65525.36351
444.181	65662.44648
444.367	65692.23204
444.554	65607.53711
444.74	65632.69118
444.927	65662.44648
445.114	65605.25144
445.3	65479.80881
445.487	65557.29298
445.673	65573.27053
445.86	65602.96594
446.046	65628.11612
446.233	65591.54111
446.419	65623.54176
446.605	65518.52591
446.792	65523.08413
446.978	65662.44648
447.165	65598.39548
447.351	65623.54176
447.537	65637.26696
447.724	65646.42065
447.91	65532.20267
448.096	65557.29298
448.283	65493.46799
448.469	65596.11051
448.655	65580.12068
448.841	65527.64306
449.028	65566.42196
449.214	65552.72954
449.4	65529.92278
449.586	65550.44808
449.773	65523.08413
449.959	65550.44808
450.145	65436.59532
450.331	65566.42196
450.517	65596.11051
450.703	65475.25712
450.889	65568.70464
451.075	65513.96837
451.261	65438.86819
451.447	65432.05011
451.633	65511.68986
451.819	65500.2999
452.005	65429.77775
452.191	65498.02242
452.377	65479.80881
452.563	65457.0572
452.749	65461.60616
452.935	65436.59532
453.121	65397.98251
453.307	65427.50557
453.493	65370.75566
453.679	65411.605
453.865	65382.09725
454.05	65354.88442
454.236	65400.25251
454.422	65466.15579
454.608	65422.9617
454.794	65443.41442
454.979	65452.50893
455.165	65420.69003
455.351	65361.68538
455.537	65366.22019
455.722	65291.48058
455.908	65373.02364
456.094	65309.58279
456.279	65289.21854
456.465	65255.30751
456.65	65350.35128
456.836	65318.63784
457.022	65307.31944
457.207	65323.16635
457.393	65275.64973
457.578	65327.69552
457.764	65230.46262
457.949	65302.79323
458.135	65241.75333
458.32	65377.56011
458.506	65329.96035
458.691	65293.74278
458.877	65273.38884
459.062	65339.02133
459.248	65345.8188
459.433	65221.43296
459.618	65198.87003
459.804	65296.00515
459.989	65203.38133
460.174	65198.87003
460.36	65225.94747
460.545	65239.49487
460.73	65255.30751
460.915	65244.01196
461.101	65253.04808
461.286	65221.43296
461.471	65239.49487
461.656	65352.61777
461.842	65198.87003
462.027	65228.20496
462.212	65198.87003
462.397	65180.8312
462.582	65212.40586
462.767	65111.02653
462.952	65307.31944
463.138	65192.10427
463.323	65115.52549
463.508	65212.40586
463.693	65171.81561
463.878	65203.38133
464.063	65113.27593
464.248	65149.28773
464.433	65149.28773
464.618	65149.28773
464.803	65144.78406
464.988	65147.03582
465.173	65079.55126
465.357	65120.02508
465.542	65124.5253
465.727	65027.9078
465.912	65077.30419
466.097	65133.52762
466.282	65133.52762
466.467	65077.30419
466.651	65032.39531
466.836	65032.39531
467.021	65189.84934
467.206	65084.04586
467.391	65142.53245
467.575	65104.27926
467.76	65095.28508
467.945	65009.96391
468.129	65041.37215
468.314	65003.23747
468.499	65120.02508
468.683	64992.02978
468.868	65072.81052
469.053	65061.57906
469.237	65045.8615
469.422	64992.02978
469.606	65048.1064
469.791	65111.02653
469.975	65030.15148
470.16	65057.08756
470.344	65021.1777
470.529	65093.03692
470.713	64924.86295
470.898	65086.29339
471.082	65048.1064
471.267	65095.28508
471.451	65079.55126
471.636	65196.61462
471.82	65086.29339
472.004	64956.19061
472.189	65075.05728
472.373	65149.28773
472.557	65131.2768
472.742	65117.77521
472.926	65126.77564
473.11	65138.02972
473.295	65043.61675
473.479	65052.59667
473.663	65061.57906
473.847	65124.5253
474.031	65115.52549
474.216	65111.02653
474.4	65135.77859
474.584	65129.02615
474.768	65090.78892
474.952	65025.66428
475.136	65023.42091
475.32	65156.04443
475.505	65043.61675
475.689	64989.78869
475.873	65063.82505
476.057	65054.84204
476.241	65102.03048
476.425	65027.9078
476.609	64992.02978
476.793	65068.31748
476.977	65138.02972
477.161	65032.39531
477.345	65014.44897
477.529	65131.2768
477.713	64976.34538
477.896	65113.27593
478.08	64958.42943
478.264	65025.66428
478.448	65050.35146
478.632	64980.82588
478.816	65189.84934
478.999	64996.5124
479.183	65079.55126
479.367	65048.1064
479.551	64884.62749
479.735	64987.54776
479.918	65023.42091
480.102	64956.19061
480.286	64994.27101
480.469	65061.57906
480.653	64958.42943
480.837	64974.10536
481.02	65000.99563
481.204	64960.6684
481.388	64931.57355
481.571	64833.28513
481.755	64969.62577
481.938	64960.6684
482.122	64996.5124
482.305	64900.2689
482.489	64817.67455
482.673	64862.29518
482.856	64936.04803
483.04	64929.33654
483.223	64920.38997
483.406	64940.52311
483.59	64936.04803
483.773	64880.15985
483.957	64960.6684
484.14	64851.13454
484.323	64815.44505
484.507	64857.83048
484.69	64891.33007
484.874	64962.90751
485.057	64909.21011
485.24	64864.52775
485.423	65000.99563
485.607	64842.20866
485.79	64900.2689
485.973	64855.59836
486.156	64790.93012
486.34	64806.5285
486.523	64788.70236
486.706	64848.90285
486.889	64920.38997
487.072	64815.44505
487.256	64795.38608
487.439	64855.59836
487.622	64797.61427
487.805	64851.13454
487.988	64822.13399
488.171	64790.93012
488.354	64779.79274
488.537	64844.43991
488.72	64797.61427
488.903	64773.11205
489.086	64826.59401
489.269	64786.47474
489.452	64782.01993
489.635	64730.83091
489.818	64622.02556
490.001	64860.06276
490.184	64819.9042
490.367	64817.67455
490.55	64721.93617
490.732	64615.37489
490.915	64759.75453
491.098	64721.93617
491.281	64846.67131
491.464	64773.11205
491.647	64799.84261
491.829	64806.5285
492.012	64715.26661
492.195	64661.95581
492.378	64750.85239
492.56	64606.50926
492.743	64628.67748
492.926	64599.86148
493.108	64739.72792
493.291	64719.71285
493.474	64582.14012
493.656	64597.64583
493.839	64542.29901
494.022	64608.72546
494.204	64537.87494
494.387	64564.42751
494.569	64701.93131
494.752	64571.06871
494.934	64595.43031
495.117	64582.14012
495.299	64619.80853
495.482	64551.14878
495.664	64504.71162
495.847	64586.56963
496.029	64626.46004
496.212	64374.5597
496.394	64597.64583
496.576	64551.14878
496.759	64644.20347
496.941	64467.163
497.123	64312.95168
497.306	64619.80853
497.488	64533.45141
497.67	64602.07727
497.853	64595.43031
498.035	64469.37067
498.217	64403.19791
498.4	64473.78642
498.582	64624.24273
498.764	64548.93614
498.946	64478.20271
499.128	64491.45475
499.311	64520.18406
499.493	64613.15827
499.675	64480.41105
499.857	64442.88732
500.039	64405.40176
500.221	64442.88732
500.403	64423.0373
500.585	64321.74666
500.767	64383.36912
500.949	64423.0373
501.132	64447.29989
501.314	64480.41105
501.496	64339.34277
501.678	64553.36156
501.859	64409.80986
502.041	64400.99419
502.223	64400.99419
502.405	64434.06377
502.587	64337.1428
502.769	64361.34948
502.951	64359.14822
503.133	64387.7746
503.315	64442.88732
503.497	64416.42299
503.678	64407.60575
503.86	64495.87317
504.042	64290.97317
504.224	64321.74666
504.406	64381.16657
504.587	64436.26946
504.769	64389.97754
504.951	64365.75237
505.132	64473.78642
505.314	64407.60575
505.496	64370.15578
505.678	64436.26946
505.859	64418.62763
506.041	64370.15578
506.222	64385.5718
506.404	64381.16657
506.586	64394.38381
506.767	64330.54369
506.949	64438.47528
507.13	64387.7746
507.312	64396.58714
507.493	64255.83392
507.675	64372.35768
507.856	64370.15578
508.038	64460.54077
508.219	64438.47528
508.401	64436.26946
508.582	64341.54286
508.764	64378.96415
508.945	64345.94343
509.126	64434.06377
509.308	64416.42299
509.489	64400.99419
509.671	64458.33362
509.852	64365.75237
510.033	64458.33362
510.214	64431.85821
510.396	64471.57848
510.577	64537.87494
510.758	64354.74611
510.94	64365.75237
511.121	64400.99419
511.302	64403.19791
511.483	64438.47528
511.664	64374.5597
511.846	64487.03687
512.027	64405.40176
512.208	64469.37067
512.389	64456.12661
512.57	64372.35768
512.751	64409.80986
512.932	64392.18061
513.113	64301.96083
513.294	64425.24233
513.476	64412.01411
513.657	64445.09354
513.838	64520.18406
514.019	64381.16657
514.2	64460.54077
514.381	64405.40176
514.561	64385.5718
514.742	64482.61952
514.923	64414.21848
515.104	64396.58714
515.285	64440.68124
515.466	64471.57848
515.647	64509.13164
515.828	64363.55086
516.009	64407.60575
516.189	64482.61952
516.37	64517.97331
516.551	64491.45475
516.732	64491.45475
516.913	64456.12661
517.093	64484.82813
517.274	64491.45475
517.455	64332.74326
517.636	64405.40176
517.816	64396.58714
517.997	64420.8324
518.178	64427.44749
518.358	64526.81713
518.539	64453.91973
518.72	64436.26946
518.9	64425.24233
519.081	64438.47528
519.261	64387.7746
519.442	64304.15875
519.622	64420.8324
519.803	64425.24233
519.984	64374.5597
520.164	64451.71299
520.345	64431.85821
520.525	64418.62763
520.705	64473.78642
520.886	64370.15578
521.066	64584.35481
521.247	64440.68124
521.427	64445.09354
521.608	64286.57899
521.788	64471.57848
521.968	64273.3995
522.149	64489.24575
522.329	64412.01411
522.509	64520.18406
522.69	64471.57848
522.87	64500.29213
523.05	64526.81713
523.231	64506.92156
523.411	64467.163
523.591	64414.21848
523.771	64495.87317
523.951	64409.80986
524.132	64392.18061
524.312	64442.88732
524.492	64471.57848
524.672	64416.42299
524.852	64392.18061
525.032	64453.91973
525.213	64420.8324
525.393	64352.54524
525.573	64529.02842
525.753	64381.16657
525.933	64407.60575
526.113	64414.21848
526.293	64517.97331
526.473	64487.03687
526.653	64341.54286
526.833	64478.20271
527.013	64535.66311
527.193	64451.71299
527.373	64467.163
527.553	64440.68124
527.733	64409.80986
527.913	64498.08258
528.092	64637.54864
528.272	64423.0373
528.452	64480.41105
528.632	64560.00072
528.812	64464.95546
528.992	64414.21848
529.171	64447.29989
529.351	64542.29901
529.531	64535.66311
529.711	64431.85821
529.89	64533.45141
530.07	64425.24233
530.25	64339.34277
530.43	64343.74308
530.609	64467.163
530.789	64449.50637
530.969	64438.47528
531.148	64506.92156
531.328	64544.51125
531.507	64498.08258
531.687	64412.01411
531.867	64537.87494
532.046	64396.58714
532.226	64502.5018
532.405	64440.68124
532.585	64462.74805
532.764	64484.82813
532.944	64339.34277
533.123	64467.163
533.303	64517.97331
533.482	64341.54286
533.662	64493.6639
533.841	64436.26946
534.021	64400.99419
534.2	64489.24575
534.379	64533.45141
534.559	64471.57848
534.738	64431.85821
534.917	64573.28272
535.097	64462.74805
535.276	64458.33362
535.455	64416.42299
535.635	64551.14878
535.814	64495.87317
535.993	64427.44749
536.172	64560.00072
536.352	64522.39495
536.531	64542.29901
536.71	64449.50637
536.889	64469.37067
537.068	64509.13164
537.248	64529.02842
537.427	64392.18061
537.606	64462.74805
537.785	64467.163
537.964	64482.61952
538.143	64546.72363
538.322	64498.08258
538.501	64464.95546
538.68	64520.18406
538.859	64416.42299
539.038	64555.57448
539.217	64555.57448
539.396	64624.24273
539.575	64480.41105
539.754	64462.74805
539.933	64427.44749
540.112	64648.64072
540.291	64487.03687
540.47	64489.24575
540.649	64491.45475
540.828	64648.64072
541.007	64458.33362
541.186	64566.64111
541.364	64467.163
541.543	64548.93614
541.722	64504.71162
541.901	64542.29901
542.08	64392.18061
542.258	64429.65279
542.437	64573.28272
542.616	64438.47528
542.795	64593.21494
542.973	64548.93614
543.152	64557.78753
543.331	64535.66311
543.509	64582.14012
543.688	64462.74805
543.867	64560.00072
544.045	64573.28272
544.224	64423.0373
544.402	64163.74592
544.581	64526.81713
544.76	64624.24273
544.938	64517.97331
545.117	64487.03687
545.295	64535.66311
545.474	64533.45141
545.652	64608.72546
545.831	64560.00072
546.009	64429.65279
546.188	64533.45141
546.366	64546.72363
546.544	64524.60597
546.723	64520.18406
546.901	64513.55221
547.08	64456.12661
547.258	64566.64111
547.436	64564.42751
547.615	64613.15827
547.793	64540.08691
547.971	64522.39495
548.15	64537.87494
548.328	64484.82813
548.506	64423.0373
548.684	64396.58714
548.863	64557.78753
549.041	64588.7846
549.219	64646.42203
549.397	64509.13164
549.576	64560.00072
549.754	64517.97331
549.932	64544.51125
550.11	64586.56963
550.288	64622.02556
550.466	64708.59832
550.644	64484.82813
550.822	64582.14012
551.001	64622.02556
551.179	64675.27592
551.357	64610.9418
551.535	64553.36156
551.713	64613.15827
551.891	64617.59164
552.069	64661.95581
552.247	64622.02556
552.425	64657.51689
552.603	64657.51689
552.781	64635.33064
552.958	64666.39529
553.136	64644.20347
553.314	64759.75453
553.492	64715.26661
553.67	64741.95253
553.848	64755.30317
554.026	64853.36637
554.204	64835.51579
554.381	64775.3388
554.559	64837.7466
554.737	64911.44578
554.915	64844.43991
555.092	64802.0711
555.27	64875.6928
555.448	64837.7466
555.626	64889.09573
555.803	64976.34538
555.981	64804.29973
556.159	64933.81072
556.336	64942.76088
556.514	65005.47946
556.692	64960.6684
556.869	64933.81072
557.047	64929.33654
557.224	64960.6684
557.402	64976.34538
557.58	64900.2689
557.757	65014.44897
557.935	65113.27593
558.112	65018.93463
558.29	65007.72161
558.467	65113.27593
558.645	65115.52549
558.822	65129.02615
559	65102.03048
559.177	65077.30419
559.354	65052.59667
559.532	65059.33323
559.709	65090.78892
559.887	65052.59667
560.064	65153.79204
560.241	65030.15148
560.419	65050.35146
560.596	65030.15148
560.773	65023.42091
560.951	65005.47946
561.128	64889.09573
561.305	65117.77521
561.482	65059.33323
561.66	65007.72161
561.837	65003.23747
562.014	65052.59667
562.191	65126.77564
562.368	65072.81052
562.546	65005.47946
562.723	65106.52819
562.9	65075.05728
563.077	65000.99563
563.254	65097.53339
563.431	65066.07118
563.608	64978.58555
563.785	65095.28508
563.962	65034.63929
564.139	65124.5253
564.317	65007.72161
564.494	65140.28101
564.671	64942.76088
564.848	65039.12771
565.025	65090.78892
565.201	65117.77521
565.378	65048.1064
565.555	65045.8615
565.732	65081.79848
565.909	65090.78892
566.086	65072.81052
566.263	65122.27511
566.44	65077.30419
566.617	65117.77521
566.794	65039.12771
566.97	65102.03048
567.147	65171.81561
567.324	65075.05728
567.501	65135.77859
567.678	65072.81052
567.854	65095.28508
568.031	65205.63723
568.208	65075.05728
568.384	65140.28101
568.561	65115.52549
568.738	65140.28101
568.915	65117.77521
569.091	65192.10427
569.268	65151.53981
569.444	65201.1256
569.621	65171.81561
569.798	65198.87003
569.974	65142.53245
570.151	65138.02972
570.327	65153.79204
570.504	65126.77564
570.681	65221.43296
570.857	65189.84934
571.034	65198.87003
571.21	65149.28773
571.387	65296.00515
571.563	65268.86753
571.739	65106.52819
571.916	65318.63784
572.092	65244.01196
572.269	65192.10427
572.445	65205.63723
572.622	65253.04808
572.798	65192.10427
572.974	65246.27074
573.151	65302.79323
573.327	65244.01196
573.503	65142.53245
573.68	65305.05625
573.856	65298.26768
574.032	65302.79323
574.208	65183.0855
574.385	65207.89328
574.561	65320.90201
574.737	65293.74278
574.913	65189.84934
575.089	65293.74278
575.266	65298.26768
575.442	65309.58279
575.618	65149.28773
575.794	65271.1281
575.97	65280.17202
576.146	65210.14949
576.322	65275.64973
576.499	65167.30877
576.675	65185.33995
576.851	65187.59457
577.027	65111.02653
577.203	65244.01196
577.379	65284.69495
577.555	65239.49487
577.731	65194.35937
577.907	64868.99333
578.083	65149.28773
578.259	65221.43296
578.435	65196.61462
578.611	65077.30419
578.786	65093.03692
578.962	65144.78406
579.138	65257.56711
579.314	65149.28773
579.49	65221.43296
579.666	65124.5253
579.842	65201.1256
580.017	65201.1256
580.193	65187.59457
580.369	65135.77859
580.545	65160.54969
580.72	65066.07118
580.896	65196.61462
581.072	65086.29339
581.248	65133.52762
581.423	65061.57906
581.599	65165.05558
581.775	65124.5253
581.95	65126.77564
582.126	65153.79204
582.302	65057.08756
582.477	65120.02508
582.653	65180.8312
582.829	65165.05558
583.004	65255.30751
583.18	65151.53981
583.355	65189.84934
583.531	65120.02508
583.706	65097.53339
583.882	65189.84934
584.057	65273.38884
584.233	65135.77859
584.408	65036.88342
584.584	65156.04443
584.759	65219.17594
584.935	65219.17594
585.11	65205.63723
585.285	65239.49487
585.461	65311.84631
585.636	65212.40586
585.812	65230.46262
585.987	65298.26768
586.162	65284.69495
586.338	65225.94747
586.513	65320.90201
586.688	65382.09725
586.863	65259.82687
587.039	65316.37383
587.214	65291.48058
587.389	65286.95666
587.564	65327.69552
587.74	65284.69495
587.915	65452.50893
588.09	65397.98251
588.265	65334.49051
588.44	65411.605
588.615	65395.71269
588.791	65384.36607
588.966	65438.86819
589.141	65457.0572
589.316	65377.56011
589.491	65391.17354
589.666	65361.68538
589.841	65325.43085
590.016	65436.59532
590.191	65352.61777
590.366	65484.36118
590.541	65502.57754
590.716	65452.50893
590.891	65429.77775
591.066	65525.36351
591.241	65500.2999
591.416	65518.52591
591.591	65507.13336
591.766	65507.13336
591.941	65621.25485
592.116	65634.97898
592.29	65516.24705
592.465	65564.13946
592.64	65678.48108
592.815	65612.10898
592.99	65662.44648
593.165	65621.25485
593.339	65644.13196
593.514	65614.39518
593.689	65536.76298
593.864	65618.96812
594.038	65646.42065
594.213	65539.0434
594.388	65621.25485
594.562	65598.39548
594.737	65536.76298
594.912	65616.68156
595.086	65673.89887
595.261	65625.82885
595.436	65555.01117
595.61	65575.55374
595.785	65568.70464
595.959	65564.13946
596.134	65605.25144
596.309	65602.96594
596.483	65609.82296
596.658	65598.39548
596.832	65625.82885
597.007	65500.2999
597.181	65657.86678
597.356	65573.27053
597.53	65662.44648
597.704	65634.97898
597.879	65593.82573
598.053	65598.39548
598.228	65511.68986
598.402	65509.41152
598.576	65609.82296
598.751	65525.36351
598.925	65584.68833
599.1	65584.68833
599.274	65630.40356
599.448	65596.11051
599.622	65502.57754
599.797	65580.12068
599.971	65580.12068
600.145	65457.0572
600.32	65552.72954
600.494	65577.83713
600.668	65529.92278
600.842	65518.52591
601.016	65628.11612
601.191	65529.92278
601.365	65320.90201
601.539	65550.44808
601.713	65584.68833
601.887	65493.46799
602.061	65609.82296
602.235	65532.20267
602.409	65602.96594
602.583	65541.32398
602.758	65664.7366
602.932	65602.96594
603.106	65667.0269
603.28	65616.68156
603.454	65570.9875
603.628	65525.36351
603.802	65621.25485
603.976	65605.25144
604.149	65586.97241
604.323	65541.32398
604.497	65618.96812
604.671	65536.76298
604.845	65570.9875
605.019	65609.82296
605.193	65621.25485
605.367	65534.48274
605.541	65566.42196
605.714	65511.68986
605.888	65520.80493
606.062	65591.54111
606.236	65694.5245
606.41	65477.53288
606.583	65602.96594
606.757	65625.82885
606.931	65570.9875
607.105	65605.25144
607.278	65609.82296
607.452	65655.57719
607.626	65520.80493
607.799	65605.25144
607.973	65623.54176
608.147	65564.13946
608.32	65621.25485
608.494	65575.55374
608.668	65602.96594
608.841	65502.57754
609.015	65513.96837
609.188	65566.42196
609.362	65676.18989
609.535	65589.25667
609.709	65614.39518
609.882	65577.83713
610.056	65550.44808
610.229	65580.12068
610.403	65582.40442
610.576	65477.53288
610.75	65550.44808
610.923	65580.12068
611.097	65637.26696
611.27	65504.85536
611.443	65570.9875
611.617	65671.60803
611.79	65676.18989
611.963	65568.70464
612.137	65580.12068
612.31	65575.55374
612.483	65602.96594
612.657	65586.97241
612.83	65644.13196
613.003	65641.84345
613.177	65602.96594
613.35	65621.25485
613.523	65580.12068
613.696	65557.29298
613.869	65694.5245
614.043	65532.20267
614.216	65580.12068
614.389	65618.96812
614.562	65541.32398
614.735	65596.11051
614.908	65605.25144
615.082	65539.0434
615.255	65584.68833
615.428	65548.1668
615.601	65625.82885
615.774	65598.39548
615.947	65552.72954
616.12	65457.0572
616.293	65493.46799
616.466	65507.13336
616.639	65525.36351
616.812	65557.29298
616.985	65475.25712
617.158	65555.01117
617.331	65573.27053
617.504	65552.72954
617.677	65630.40356
617.85	65584.68833
618.022	65598.39548
618.195	65580.12068
618.368	65516.24705
618.541	65502.57754
618.714	65582.40442
618.887	65570.9875
619.059	65536.76298
619.232	65580.12068
619.405	65422.9617
619.578	65452.50893
619.751	65561.85712
619.923	65539.0434
620.096	65470.70611
620.269	65491.19103
620.441	65541.32398
620.614	65582.40442
620.787	65509.41152
620.96	65523.08413
621.132	65427.50557
621.305	65400.25251
621.477	65457.0572
621.65	65543.60475
621.823	65557.29298
621.995	65452.50893
622.168	65461.60616
622.34	65463.88089
622.513	65475.25712
622.685	65470.70611
622.858	65452.50893
623.03	65511.68986
623.203	65539.0434
623.375	65491.19103
623.548	65532.20267
623.72	65463.88089
623.893	65466.15579
624.065	65488.91424
624.238	65482.08491
624.41	65582.40442
624.582	65420.69003
624.755	65498.02242
624.927	65475.25712
625.1	65468.43087
625.272	65541.32398
625.444	65434.32263
625.617	65348.08496
625.789	65425.23355
625.961	65486.63763
626.133	65422.9617
626.306	65409.33417
626.478	65409.33417
626.65	65393.44303
626.822	65475.25712
626.995	65373.02364
627.167	65384.36607
627.339	65454.78298
627.511	65345.8188
627.683	65384.36607
627.855	65354.88442
628.027	65434.32263
628.2	65368.48784
628.372	65393.44303
628.544	65395.71269
628.716	65393.44303
628.888	65370.75566
629.06	65307.31944
629.232	65470.70611
629.404	65395.71269
629.576	65311.84631
629.748	65411.605
629.92	65273.38884
630.092	65262.08679
630.264	65359.41823
630.436	65436.59532
630.608	65368.48784
630.78	65363.9527
630.952	65407.0635
631.124	65329.96035
631.295	65352.61777
631.467	65404.793
631.639	65320.90201
631.811	65400.25251
631.983	65379.8286
632.155	65379.8286
632.326	65375.29179
632.498	65370.75566
632.67	65379.8286
632.842	65413.876
633.014	65359.41823
633.185	65302.79323
633.357	65391.17354
633.529	65264.34687
633.7	65298.26768
633.872	65413.876
634.044	65416.14718
634.215	65305.05625
634.387	65379.8286
634.559	65457.0572
634.73	65400.25251
634.902	65447.96133
635.074	65384.36607
635.245	65375.29179
635.417	65397.98251
635.588	65311.84631
635.76	65457.0572
635.931	65443.41442
636.103	65457.0572
636.274	65352.61777
636.446	65404.793
636.617	65339.02133
636.789	65432.05011
636.96	65425.23355
637.132	65445.68779
637.303	65434.32263
637.474	65466.15579
637.646	65384.36607
637.817	65459.33159
637.989	65411.605
638.16	65470.70611
638.331	65493.46799
638.503	65357.15124
638.674	65388.90422
638.845	65493.46799
639.017	65404.793
639.188	65407.0635
639.359	65495.74512
639.53	65482.08491
639.702	65411.605
639.873	65491.19103
640.044	65454.78298
640.215	65466.15579
640.387	65366.22019
640.558	65348.08496
640.729	65320.90201
640.9	65350.35128
641.071	65361.68538
641.242	65366.22019
641.413	65377.56011
641.585	65422.9617
641.756	65350.35128
641.927	65477.53288
642.098	65402.52267
642.269	65400.25251
642.44	65466.15579
642.611	65393.44303
642.782	65400.25251
642.953	65309.58279
643.124	65352.61777
643.295	65475.25712
643.466	65341.28699
643.637	65404.793
643.808	65386.63506
643.979	65318.63784
644.15	65291.48058
644.32	65345.8188
644.491	65363.9527
644.662	65511.68986
644.833	65388.90422
645.004	65354.88442
645.175	65397.98251
645.346	65334.49051
645.516	65427.50557
645.687	65379.8286
645.858	65382.09725
646.029	65332.22535
646.199	65413.876
646.37	65375.29179
646.541	65438.86819
646.712	65311.84631
646.882	65359.41823
647.053	65391.17354
647.224	65386.63506
647.394	65373.02364
647.565	65377.56011
647.736	65416.14718
647.906	65450.23505
648.077	65377.56011
648.248	65447.96133
648.418	65420.69003
648.589	65463.88089
648.759	65404.793
648.93	65407.0635
649.1	65466.15579
649.271	65334.49051
649.441	65343.55281
649.612	65416.14718
649.782	65341.28699
649.953	65323.16635
650.123	65375.29179
650.294	65316.37383
650.464	65357.15124
650.635	65063.82505
650.805	65379.8286
650.975	65253.04808
651.146	65416.14718
651.316	65370.75566
651.487	65400.25251
651.657	65402.52267
651.827	65334.49051
651.998	65457.0572
652.168	65343.55281
652.338	65407.0635
652.508	65472.98153
652.679	65395.71269
652.849	65316.37383
653.019	65352.61777
653.189	65348.08496
653.36	65361.68538
653.53	65457.0572
653.7	65363.9527
653.87	65477.53288
654.04	65411.605
654.211	65429.77775
654.381	65334.49051
654.551	65447.96133
654.721	65357.15124
654.891	65432.05011
655.061	65354.88442
655.231	65466.15579
655.401	65479.80881
655.571	65445.68779
655.741	65363.9527
655.911	65411.605
656.081	65350.35128
656.251	65482.08491
656.421	65377.56011
656.591	65472.98153
656.761	65388.90422
656.931	65513.96837
657.101	65479.80881
657.271	65425.23355
657.441	65402.52267
657.611	65516.24705
657.781	65407.0635
657.951	65450.23505
658.121	65388.90422
658.291	65384.36607
658.46	65491.19103
658.63	65418.41852
658.8	65445.68779
658.97	65413.876
659.14	65361.68538
659.309	65441.14122
659.479	65395.71269
659.649	65470.70611
659.819	65386.63506
659.988	65507.13336
660.158	65539.0434
660.328	65418.41852
660.497	65482.08491
660.667	65468.43087
660.837	65418.41852
661.006	65397.98251
661.176	65557.29298
661.346	65447.96133
661.515	65488.91424
661.685	65493.46799
661.854	65450.23505
662.024	65477.53288
662.194	65438.86819
662.363	65427.50557
662.533	65479.80881
662.702	65575.55374
662.872	65525.36351
663.041	65416.14718
663.211	65561.85712
663.38	65618.96812
663.55	65482.08491
663.719	65477.53288
663.889	65600.68062
664.058	65557.29298
664.227	65502.57754
664.397	65488.91424
664.566	65486.63763
664.735	65575.55374
664.905	65536.76298
665.074	65536.76298
665.244	65520.80493
665.413	65584.68833
665.582	65498.02242
665.751	65532.20267
665.921	65534.48274
666.09	65543.60475
666.259	65495.74512
666.428	65539.0434
666.598	65543.60475
666.767	65486.63763
666.936	65495.74512
667.105	65475.25712
667.275	65527.64306
667.444	65525.36351
667.613	65432.05011
667.782	65584.68833
667.951	65488.91424
668.12	65516.24705
668.289	65527.64306
668.458	65479.80881
668.628	65582.40442
668.797	65550.44808
668.966	65566.42196
669.135	65447.96133
669.304	65518.52591
669.473	65518.52591
669.642	65545.88568
669.811	65548.1668
669.98	65500.2999
670.149	65477.53288
670.318	65593.82573
670.487	65561.85712
670.656	65507.13336
670.824	65552.72954
670.993	65602.96594
671.162	65504.85536
671.331	65491.19103
671.5	65555.01117
671.669	65575.55374
671.838	65591.54111
672.007	65525.36351
672.175	65541.32398
672.344	65552.72954
672.513	65411.605
672.682	65586.97241
672.85	65502.57754
673.019	65470.70611
673.188	65445.68779
673.357	65500.2999
673.525	65591.54111
673.694	65591.54111
673.863	65541.32398
674.032	65502.57754
674.2	65568.70464
674.369	65568.70464
674.537	65511.68986
674.706	65607.53711
674.875	65559.57497
675.043	65539.0434
675.212	65525.36351
675.381	65525.36351
675.549	65580.12068
675.718	65598.39548
675.886	65550.44808
676.055	65621.25485
676.223	65593.82573
676.392	65529.92278
676.56	65543.60475
676.729	65555.01117
676.897	65616.68156
677.066	65580.12068
677.234	65577.83713
677.403	65680.77246
677.571	65584.68833
677.739	65575.55374
677.908	65598.39548
678.076	65550.44808
678.244	65564.13946
678.413	65614.39518
678.581	65545.88568
678.75	65600.68062
678.918	65605.25144
679.086	65589.25667
679.254	65683.06402
679.423	65493.46799
679.591	65589.25667
679.759	65584.68833
679.928	65612.10898
680.096	65564.13946
680.264	65598.39548
680.432	65559.57497
680.6	65586.97241
680.769	65539.0434
680.937	65639.55512
681.105	65539.0434
681.273	65536.76298
681.441	65591.54111
681.609	65484.36118
681.777	65591.54111
681.945	65557.29298
682.114	65614.39518
682.282	65566.42196
682.45	65598.39548
682.618	65625.82885
682.786	65683.06402
682.954	65577.83713
683.122	65407.0635
683.29	65504.85536
683.458	65612.10898
683.626	65607.53711
683.794	65577.83713
683.962	65696.81714
684.13	65523.08413
684.298	65637.26696
684.465	65570.9875
684.633	65625.82885
684.801	65639.55512
684.969	65614.39518
685.137	65534.48274
685.305	65634.97898
685.473	65575.55374
685.64	65634.97898
685.808	65712.87067
685.976	65507.13336
686.144	65662.44648
686.312	65493.46799
686.479	65655.57719
686.647	65646.42065
686.815	65605.25144
686.983	65623.54176
687.15	65586.97241
687.318	65621.25485
687.486	65589.25667
687.653	65575.55374
687.821	65628.11612
687.989	65577.83713
688.156	65669.31738
688.324	65644.13196
688.492	65586.97241
688.659	65731.22844
688.827	65559.57497
688.994	65653.28779
689.162	65634.97898
689.329	65527.64306
689.497	65655.57719
689.665	65696.81714
689.832	65584.68833
690	65566.42196
690.167	65664.7366
690.335	65625.82885
690.502	65648.70952
690.669	65584.68833
690.837	65628.11612
691.004	65536.76298
691.172	65534.48274
691.339	65518.52591
691.507	65687.64767
691.674	65653.28779
691.841	65662.44648
692.009	65701.40296
692.176	65616.68156
692.343	65662.44648
692.511	65623.54176
692.678	65630.40356
692.845	65616.68156
693.013	65671.60803
693.18	65582.40442
693.347	65602.96594
693.514	65705.9895
693.682	65605.25144
693.849	65650.99856
694.016	65630.40356
694.183	65561.85712
694.35	65745.00441
694.518	65657.86678
694.685	65660.15654
694.852	65655.57719
695.019	65749.59787
695.186	65618.96812
695.353	65541.32398
695.52	65596.11051
695.687	65591.54111
695.855	65609.82296
696.022	65607.53711
696.189	65653.28779
696.356	65671.60803
696.523	65722.0481
696.69	65539.0434
696.857	65749.59787
697.024	65577.83713
697.191	65669.31738
697.358	65580.12068
697.525	65561.85712
697.692	65612.10898
697.858	65687.64767
698.025	65596.11051
698.192	65600.68062
698.359	65701.40296
698.526	65612.10898
698.693	65618.96812
698.86	65662.44648
699.027	65641.84345
699.193	65708.28304
699.36	65662.44648
699.527	65673.89887
699.694	65696.81714
699.861	65696.81714
700.027	65539.0434
700.194	65584.68833
700.361	65600.68062
700.528	65591.54111
700.694	65646.42065
700.861	65683.06402
701.028	65614.39518
701.195	65614.39518
701.361	65605.25144
701.528	65653.28779
701.694	65596.11051
701.861	65722.0481
702.028	65523.08413
702.194	65582.40442
702.361	65653.28779
702.528	65650.99856
702.694	65644.13196
702.861	65498.02242
703.027	65612.10898
703.194	65669.31738
703.36	65614.39518
703.527	65712.87067
703.693	65559.57497
703.86	65548.1668
704.026	65637.26696
704.193	65788.67184
704.359	65634.97898
704.526	65685.35575
