Data from Sun spf900_Subt2__1__10-07-14-164.txt Node

Date: Tue Sep 23 10:07:14 EDT 2025
User: brett
Spectrometer: USB4F03499
Trigger mode: 4
Integration Time (sec): 1.000000E-1
Scans to average: 1
Electric dark correction enabled: true
Nonlinearity correction enabled: true
Boxcar width: 0
XAxis mode: Wavelengths
Number of Pixels in Spectrum: 3648
>>>>>Begin Spectral Data<<<<<
0	-7.30864
0.225	-7.30864
0.449	-7.30864
0.674	1.9191
0.898	-16.51366
1.123	54.49878
1.347	-23.29308
1.572	6.4979
1.796	89.10192
2.021	-23.32613
2.245	13.33575
2.469	-48.57773
2.694	-121.86457
2.918	4.20436
3.143	-16.45017
3.367	-41.65153
3.591	107.25507
3.815	61.44722
4.04	3067.02526
4.264	4081.59759
4.488	3884.62682
4.712	4094.76924
4.936	4116.79898
5.161	3940.84511
5.385	4089.51886
5.609	4194.86855
5.833	4116.40524
6.057	4017.19617
6.281	4190.9174
6.505	4119.10544
6.729	4105.58715
6.953	4207.35343
7.177	4151.35562
7.401	3998.79567
7.625	4019.89509
7.849	4107.21493
8.073	4362.98187
8.297	4190.07479
8.521	3985.5991
8.744	4105.35706
8.968	4276.40616
9.192	4149.16526
9.416	4253.38442
9.64	4092.84742
9.863	4207.22536
10.087	4177.43702
10.311	4199.91479
10.535	4244.73051
10.758	4085.42171
10.982	4099.70915
11.205	4121.18561
11.429	4211.7256
11.653	4019.04033
11.876	4179.23612
12.1	4120.7684
12.323	4257.46178
12.547	4190.52692
12.77	4265.49316
12.994	4187.55865
13.217	4242.97636
13.441	4209.89682
13.664	4356.96665
13.887	4216.56642
14.111	4240.63522
14.334	4158.27315
14.557	4035.72371
14.781	4381.41681
15.004	4231.63136
15.227	4200.2481
15.451	4338.69938
15.674	4241.81368
15.897	4341.22497
16.12	4336.02611
16.343	4189.04717
16.567	4364.96621
16.79	4328.00533
17.013	4177.8037
17.236	4414.14135
17.459	4343.68995
17.682	4350.9943
17.905	4266.81566
18.128	4457.07401
18.351	4302.78631
18.574	4251.38565
18.797	4488.0637
19.02	4439.1589
19.243	4436.97965
19.466	4291.07412
19.689	4310.16348
19.911	4359.69774
20.134	4456.10232
20.357	4425.84745
20.58	4369.0364
20.803	4521.24886
21.025	4407.82419
21.248	4378.85249
21.471	4561.64463
21.694	4386.42643
21.916	4360.16377
22.139	4695.5589
22.362	4445.70223
22.584	4365.39912
22.807	4593.69255
23.029	4411.75789
23.252	4358.80036
23.475	4674.10263
23.697	4410.33419
23.92	4519.38568
24.142	4471.46882
24.365	4412.10834
24.587	4609.06555
24.809	4484.342
25.032	4499.64911
25.254	4441.0646
25.477	4716.09496
25.699	4406.83056
25.921	4538.65865
26.144	4631.77891
26.366	4707.30904
26.588	4623.41401
26.81	4711.69917
27.033	4637.97211
27.255	4682.68142
27.477	4615.71802
27.699	4761.38913
27.921	4748.27528
28.144	4583.78189
28.366	4766.06006
28.588	4770.98008
28.81	4785.4493
29.032	4763.49671
29.254	4755.18903
29.476	4630.28276
29.698	4701.43659
29.92	4729.9349
30.142	4778.34723
30.364	4720.94635
30.586	4719.97388
30.808	4806.81838
31.029	4881.86757
31.251	4772.60124
31.473	4808.48856
31.695	4908.22897
31.917	4923.81761
32.139	4754.55969
32.36	4748.70719
32.582	4994.94565
32.804	4715.13064
33.026	4837.08627
33.247	5039.01578
33.469	4949.96112
33.691	4921.76327
33.912	4809.10686
34.134	4856.22773
34.355	5108.7353
34.577	5108.44151
34.798	5090.25094
35.02	4953.37939
35.242	5031.71557
35.463	5080.42821
35.684	5055.2805
35.906	5212.22669
36.127	5082.55537
36.349	5130.9354
36.57	5277.56934
36.792	5159.44416
37.013	5173.85147
37.234	5289.35458
37.456	5113.81134
37.677	5286.69446
37.898	5307.21327
38.119	5078.13029
38.341	5141.71975
38.562	5395.87904
38.783	5142.18414
39.004	5207.82617
39.225	5085.60216
39.447	5173.04493
39.668	5380.30488
39.889	5413.52371
40.11	5216.7581
40.331	5434.44871
40.552	5373.15926
40.773	5363.07105
40.994	5381.26278
41.215	5466.65656
41.436	5371.34112
41.657	5241.84423
41.878	5304.84928
42.099	5571.67055
42.32	5559.67231
42.54	5449.11086
42.761	5652.62492
42.982	5545.58921
43.203	5719.49304
43.424	5681.31043
43.645	5573.41806
43.865	5605.98248
44.086	5671.75254
44.307	5648.18872
44.527	5811.59033
44.748	5480.05912
44.969	5745.27053
45.189	5695.22789
45.41	5891.33932
45.631	5781.28995
45.851	5884.04684
46.072	5800.53139
46.292	5930.24676
46.513	5722.35043
46.733	5672.02285
46.954	6104.529
47.174	5956.07425
47.395	6054.19948
47.615	6045.99834
47.836	6030.96696
48.056	6150.9538
48.276	5999.11122
48.497	6008.26091
48.717	6278.04201
48.937	6139.01751
49.158	6443.81984
49.378	6413.00422
49.598	6481.47012
49.818	6516.34042
50.038	6661.26224
50.259	6856.36337
50.479	6840.27183
50.699	6941.81049
50.919	7184.8394
51.139	7428.01336
51.359	7674.23544
51.579	7714.85356
51.799	7941.18938
52.02	8161.9447
52.24	8444.44754
52.46	8808.66754
52.68	9040.58947
52.899	8969.4234
53.119	9184.20571
53.339	9584.3417
53.559	9699.13038
53.779	9935.35921
53.999	10292.35921
54.219	10389.52722
54.439	10993.94535
54.658	10963.9644
54.878	11378.89644
55.098	11879.24026
55.318	11964.43849
55.538	12896.51474
55.757	13471.37595
55.977	13896.58301
56.197	14906.3137
56.416	15458.79503
56.636	16413.70984
56.855	17449.64719
57.075	17930.60762
57.295	18588.85054
57.514	19939.89417
57.734	20619.01817
57.953	21240.91431
58.173	21744.24937
58.392	22446.16207
58.612	23509.53792
58.831	24187.98591
59.051	25164.67163
59.27	27319.32893
59.489	29057.58878
59.709	29910.04954
59.928	32390.67974
60.147	33543.34506
60.367	35112.45172
60.586	35453.38219
60.805	37150.06997
61.024	40510.84621
61.244	41371.89749
61.463	41488.25772
61.682	43654.74445
61.901	46633.91437
62.12	47191.56986
62.34	48092.24063
62.559	49522.18552
62.778	50816.23344
62.997	53036.77419
63.216	55274.34043
63.435	57806.49275
63.654	58595.8713
63.873	61468.88093
64.092	65580.48873
64.311	65520.93855
64.53	65559.86147
64.749	65578.19609
64.968	65566.7356
65.187	65663.14477
65.405	65580.48873
65.624	65575.90363
65.843	65555.27962
66.062	65564.44405
66.281	65527.80355
66.499	65651.65059
66.718	65633.26945
66.937	65550.69848
67.156	65566.7356
67.374	65605.71969
67.593	65468.35991
67.812	65575.90363
68.03	65587.36772
68.249	65635.56645
68.467	65605.71969
68.686	65539.24878
68.905	65527.80355
69.123	65697.65499
69.342	65571.31926
69.56	65601.13061
69.779	65674.64355
69.997	65548.40819
70.216	65589.66108
70.434	65564.44405
70.652	65534.67015
70.871	65580.48873
71.089	65608.0145
71.307	65649.3523
71.526	65557.57046
71.744	65614.90003
71.962	65608.0145
72.181	65612.60467
72.399	65605.71969
72.617	65562.15267
72.835	65546.11807
73.054	65614.90003
73.272	65591.95463
73.49	65603.42506
73.708	65656.24771
73.926	65647.0542
74.144	65642.45855
74.362	65557.57046
74.58	65591.95463
74.798	65589.66108
75.016	65573.61135
75.234	65605.71969
75.452	65580.48873
75.67	65543.82812
75.888	65617.19557
76.106	65518.65057
76.324	65651.65059
76.542	65656.24771
76.76	65575.90363
76.978	65587.36772
77.196	65619.49129
77.413	65546.11807
77.631	65523.2267
77.849	65630.97263
78.067	65541.53836
78.284	65539.24878
78.502	65596.54225
78.72	65596.54225
78.938	65651.65059
79.155	65633.26945
79.373	65587.36772
79.59	65633.26945
79.808	65596.54225
80.026	65621.78719
80.243	65605.71969
80.461	65495.78057
80.678	65479.7821
80.896	65539.24878
81.113	65569.02734
81.331	65601.13061
81.548	65395.36144
81.766	65534.67015
81.983	65557.57046
82.2	65608.0145
82.418	65663.14477
82.635	65527.80355
82.852	65431.83838
83.07	65578.19609
83.287	65589.66108
83.504	65555.27962
83.722	65482.06707
83.939	65571.31926
84.156	65475.2127
84.373	65628.676
84.591	65587.36772
84.808	65573.61135
85.025	65534.67015
85.242	65608.0145
85.459	65566.7356
85.676	65578.19609
85.893	65644.75629
86.11	65559.86147
86.327	65562.15267
86.544	65573.61135
86.761	65603.42506
86.978	65534.67015
87.195	65569.02734
87.412	65679.24436
87.629	65624.08328
87.846	65585.07454
88.063	65500.35315
88.28	65578.19609
88.497	65587.36772
88.713	65617.19557
88.93	65642.45855
89.147	65603.42506
89.364	65543.82812
89.58	65571.31926
89.797	65543.82812
90.014	65573.61135
90.231	65520.93855
90.447	65598.83634
90.664	65543.82812
90.881	65552.98896
91.097	65507.21335
91.314	65514.07515
91.53	65591.95463
91.747	65562.15267
91.963	65626.37955
92.18	65578.19609
92.396	65578.19609
92.613	65564.44405
92.829	65663.14477
93.046	65647.0542
93.262	65637.86364
93.479	65546.11807
93.695	65552.98896
93.911	65587.36772
94.128	65637.86364
94.344	65500.35315
94.56	65539.24878
94.777	65686.14696
94.993	65617.19557
95.209	65511.78771
95.426	65358.92871
95.642	65640.161
95.858	65601.13061
96.074	65585.07454
96.29	65651.65059
96.506	65580.48873
96.723	65562.15267
96.939	65633.26945
97.155	65621.78719
97.371	65571.31926
97.587	65603.42506
97.803	65605.71969
98.019	65596.54225
98.235	65539.24878
98.451	65628.676
98.667	65482.06707
98.883	65619.49129
99.099	65651.65059
99.315	65624.08328
99.53	65564.44405
99.746	65596.54225
99.962	65630.97263
100.178	65587.36772
100.394	65589.66108
100.61	65656.24771
100.825	65541.53836
101.041	65619.49129
101.257	65566.7356
101.473	65571.31926
101.688	65552.98896
101.904	65610.30949
102.12	65578.19609
102.335	65564.44405
102.551	65610.30949
102.766	65518.65057
102.982	65596.54225
103.198	65617.19557
103.413	65575.90363
103.629	65608.0145
103.844	65601.13061
104.06	65589.66108
104.275	65536.95938
104.49	65555.27962
104.706	65628.676
104.921	64992.44887
105.137	65575.90363
105.352	65509.50044
105.567	65589.66108
105.783	65566.7356
105.998	65559.86147
106.213	65541.53836
106.429	65626.37955
106.644	65610.30949
106.859	65569.02734
107.074	65443.24655
107.29	65628.676
107.505	65594.24835
107.72	65523.2267
107.935	65527.80355
108.15	65559.86147
108.365	65640.161
108.58	65536.95938
108.795	65530.09224
109.01	65536.95938
109.226	65660.84556
109.441	65422.71498
109.656	65640.161
109.871	65472.92826
110.085	65541.53836
110.3	65571.31926
110.515	65649.3523
110.73	65486.63753
110.945	65598.83634
111.16	65541.53836
111.375	65546.11807
111.59	65594.24835
111.804	65564.44405
112.019	65566.7356
112.234	65603.42506
112.449	65541.53836
112.663	65580.48873
112.878	65603.42506
113.093	65582.78154
113.308	65495.78057
113.522	65580.48873
113.737	65702.25951
113.951	65550.69848
114.166	65582.78154
114.381	65571.31926
114.595	65594.24835
114.81	65564.44405
115.024	65578.19609
115.239	65550.69848
115.453	65612.60467
115.668	65596.54225
115.882	65543.82812
116.097	65596.54225
116.311	65679.24436
116.525	65571.31926
116.74	65686.14696
116.954	65534.67015
117.169	65582.78154
117.383	65564.44405
117.597	65520.93855
117.811	65580.48873
118.026	65495.78057
118.24	65532.3811
118.454	65585.07454
118.668	65587.36772
118.883	65587.36772
119.097	65569.02734
119.311	65569.02734
119.525	65571.31926
119.739	65575.90363
119.953	65596.54225
120.167	65454.65909
120.381	65605.71969
120.595	65571.31926
120.809	65612.60467
121.023	65557.57046
121.237	65596.54225
121.451	65605.71969
121.665	65601.13061
121.879	65569.02734
122.093	65504.92644
122.307	65676.94386
122.521	65617.19557
122.735	65504.92644
122.949	65601.13061
123.163	65656.24771
123.376	65539.24878
123.59	65518.65057
123.804	65575.90363
124.018	65612.60467
124.231	65624.08328
124.445	65647.0542
124.659	65502.63971
124.872	65484.35221
125.086	65580.48873
125.3	65575.90363
125.513	65557.57046
125.727	65612.60467
125.94	65559.86147
126.154	65580.48873
126.368	65628.676
126.581	65603.42506
126.795	65612.60467
127.008	65608.0145
127.222	65640.161
127.435	65628.676
127.648	65626.37955
127.862	65555.27962
128.075	65619.49129
128.289	65536.95938
128.502	65630.97263
128.715	65566.7356
128.929	65681.54504
129.142	65608.0145
129.355	65578.19609
129.568	65516.36277
129.782	65555.27962
129.995	65500.35315
130.208	65601.13061
130.421	65621.78719
130.634	65614.90003
130.848	65536.95938
131.061	65500.35315
131.274	65541.53836
131.487	65640.161
131.7	65612.60467
131.913	65539.24878
132.126	65585.07454
132.339	65488.92302
132.552	65399.91864
132.765	65507.21335
132.978	65585.07454
133.191	65608.0145
133.404	65543.82812
133.617	65603.42506
133.83	65555.27962
134.043	65633.26945
134.255	65658.54654
134.468	65557.57046
134.681	65653.94906
134.894	65695.35301
135.107	65624.08328
135.319	65546.11807
135.532	65573.61135
135.745	65539.24878
135.958	65591.95463
136.17	65665.44415
136.383	65569.02734
136.596	65617.19557
136.808	65589.66108
137.021	65527.80355
137.233	65619.49129
137.446	65562.15267
137.659	65601.13061
137.871	65452.37623
138.084	65591.95463
138.296	65552.98896
138.509	65587.36772
138.721	65621.78719
138.934	65569.02734
139.146	65555.27962
139.358	65614.90003
139.571	65493.49454
139.783	65498.06677
139.996	65573.61135
140.208	65518.65057
140.42	65525.51504
140.632	65552.98896
140.845	65605.71969
141.057	65665.44415
141.269	65612.60467
141.481	65587.36772
141.694	65633.26945
141.906	65566.7356
142.118	65683.8459
142.33	65559.86147
142.542	65640.161
142.754	65548.40819
142.967	65672.34343
143.179	65626.37955
143.391	65514.07515
143.603	65605.71969
143.815	65502.63971
144.027	65582.78154
144.239	65475.2127
144.451	65573.61135
144.663	65585.07454
144.875	65509.50044
145.086	65477.49731
145.298	65530.09224
145.51	65608.0145
145.722	65511.78771
145.934	65601.13061
146.146	65605.71969
146.358	65589.66108
146.569	65640.161
146.781	65555.27962
146.993	65637.86364
147.205	65491.2087
147.416	65591.95463
147.628	65582.78154
147.84	65541.53836
148.051	65589.66108
148.263	65555.27962
148.475	65628.676
148.686	65594.24835
148.898	65518.65057
149.109	65502.63971
149.321	65630.97263
149.532	65509.50044
149.744	65566.7356
149.955	65543.82812
150.167	65598.83634
150.378	65585.07454
150.59	65614.90003
150.801	65653.94906
151.013	65640.161
151.224	65502.63971
151.435	65589.66108
151.647	65502.63971
151.858	65557.57046
152.069	65589.66108
152.281	65591.95463
152.492	65562.15267
152.703	65596.54225
152.914	65461.50871
153.126	65557.57046
153.337	65562.15267
153.548	65658.54654
153.759	65552.98896
153.97	65637.86364
154.181	65621.78719
154.392	65532.3811
154.604	65649.3523
154.815	65612.60467
155.026	65546.11807
155.237	65589.66108
155.448	65482.06707
155.659	65564.44405
155.87	65571.31926
156.081	65550.69848
156.292	65619.49129
156.502	65651.65059
156.713	65548.40819
156.924	65525.51504
157.135	65569.02734
157.346	65585.07454
157.557	65548.40819
157.768	65614.90003
157.978	65656.24771
158.189	65559.86147
158.4	65621.78719
158.611	65559.86147
158.821	65509.50044
159.032	65598.83634
159.243	65530.09224
159.453	65578.19609
159.664	65578.19609
159.875	65539.24878
160.085	65614.90003
160.296	65539.24878
160.507	65598.83634
160.717	65624.08328
160.928	65536.95938
161.138	65741.42801
161.349	65596.54225
161.559	65663.14477
161.77	65594.24835
161.98	65617.19557
162.19	65543.82812
162.401	65598.83634
162.611	65532.3811
162.822	65605.71969
163.032	65598.83634
163.242	65612.60467
163.453	65532.3811
163.663	65635.56645
163.873	65559.86147
164.084	65621.78719
164.294	65633.26945
164.504	65582.78154
164.714	65564.44405
164.924	65566.7356
165.135	65617.19557
165.345	65536.95938
165.555	65575.90363
165.765	65523.2267
165.975	65532.3811
166.185	65580.48873
166.395	65608.0145
166.605	65649.3523
166.815	65637.86364
167.025	65596.54225
167.235	65498.06677
167.445	65695.35301
167.655	65559.86147
167.865	65589.66108
168.075	65573.61135
168.285	65589.66108
168.495	65571.31926
168.705	65507.21335
168.915	65482.06707
169.124	65546.11807
169.334	65548.40819
169.544	65552.98896
169.754	65589.66108
169.964	65543.82812
170.173	65518.65057
170.383	65564.44405
170.593	65571.31926
170.802	65527.80355
171.012	65630.97263
171.222	65594.24835
171.431	65635.56645
171.641	65601.13061
171.851	65656.24771
172.06	65614.90003
172.27	65617.19557
172.479	65550.69848
172.689	65612.60467
172.898	65559.86147
173.108	65603.42506
173.317	65536.95938
173.527	65642.45855
173.736	65647.0542
173.945	65573.61135
174.155	65534.67015
174.364	65536.95938
174.574	65573.61135
174.783	65585.07454
174.992	65523.2267
175.202	65582.78154
175.411	65525.51504
175.62	65612.60467
175.829	65626.37955
176.039	65562.15267
176.248	65532.3811
176.457	65585.07454
176.666	65500.35315
176.875	65617.19557
177.084	65546.11807
177.294	65624.08328
177.503	65637.86364
177.712	65495.78057
177.921	65619.49129
178.13	65587.36772
178.339	65674.64355
178.548	65608.0145
178.757	65575.90363
178.966	65536.95938
179.175	65550.69848
179.384	65594.24835
179.593	65571.31926
179.802	65649.3523
180.011	65575.90363
180.219	65596.54225
180.428	65566.7356
180.637	65566.7356
180.846	65536.95938
181.055	65569.02734
181.263	65594.24835
181.472	65491.2087
181.681	65624.08328
181.89	65559.86147
182.098	65493.49454
182.307	65601.13061
182.516	65562.15267
182.724	65578.19609
182.933	65541.53836
183.142	65665.44415
183.35	65562.15267
183.559	65569.02734
183.767	65585.07454
183.976	65614.90003
184.184	65628.676
184.393	65555.27962
184.601	65614.90003
184.81	65495.78057
185.018	65619.49129
185.227	65557.57046
185.435	65637.86364
185.644	65541.53836
185.852	65683.8459
186.06	65539.24878
186.269	65539.24878
186.477	65534.67015
186.685	65582.78154
186.894	65493.49454
187.102	65578.19609
187.31	65509.50044
187.518	65582.78154
187.727	65667.74373
187.935	65644.75629
188.143	65585.07454
188.351	65552.98896
188.559	65644.75629
188.768	65507.21335
188.976	65527.80355
189.184	65543.82812
189.392	65541.53836
189.6	65550.69848
189.808	65470.644
190.016	65612.60467
190.224	65601.13061
190.432	65571.31926
190.64	65575.90363
190.848	65566.7356
191.056	65518.65057
191.264	65557.57046
191.472	65582.78154
191.679	65598.83634
191.887	65591.95463
192.095	65674.64355
192.303	65555.27962
192.511	65605.71969
192.719	65681.54504
192.926	65525.51504
193.134	65681.54504
193.342	65610.30949
193.55	65589.66108
193.757	65582.78154
193.965	65559.86147
194.173	65543.82812
194.38	65649.3523
194.588	65624.08328
194.796	65603.42506
195.003	65527.80355
195.211	65624.08328
195.418	65605.71969
195.626	65672.34343
195.833	65566.7356
196.041	65523.2267
196.248	65582.78154
196.456	65525.51504
196.663	65482.06707
196.871	65612.60467
197.078	65564.44405
197.285	65589.66108
197.493	65564.44405
197.7	65445.52871
197.908	65557.57046
198.115	65598.83634
198.322	65569.02734
198.529	65640.161
198.737	65658.54654
198.944	65564.44405
199.151	65656.24771
199.358	65621.78719
199.566	65699.95716
199.773	65491.2087
199.98	65587.36772
200.187	65617.19557
200.394	65580.48873
200.601	65459.22533
200.809	65670.04348
201.016	65557.57046
201.223	65550.69848
201.43	65665.44415
201.637	65608.0145
201.844	65612.60467
202.051	65686.14696
202.258	65562.15267
202.465	65603.42506
202.672	65674.64355
202.878	65580.48873
203.085	65608.0145
203.292	65562.15267
203.499	65532.3811
203.706	65580.48873
203.913	65578.19609
204.12	65640.161
204.326	65621.78719
204.533	65633.26945
204.74	65523.2267
204.947	65571.31926
205.153	65582.78154
205.36	65566.7356
205.567	65672.34343
205.773	65665.44415
205.98	65543.82812
206.187	65587.36772
206.393	65578.19609
206.6	65601.13061
206.806	65642.45855
207.013	65516.36277
207.22	65523.2267
207.426	65633.26945
207.633	65573.61135
207.839	65507.21335
208.046	65539.24878
208.252	65541.53836
208.458	65536.95938
208.665	65564.44405
208.871	65603.42506
209.078	65495.78057
209.284	65587.36772
209.49	65598.83634
209.697	65601.13061
209.903	65640.161
210.109	65605.71969
210.316	65539.24878
210.522	65619.49129
210.728	65557.57046
210.934	65361.20446
211.14	65601.13061
211.347	65660.84556
211.553	65546.11807
211.759	65569.02734
211.965	65523.2267
212.171	65546.11807
212.377	65511.78771
212.583	65573.61135
212.789	65610.30949
212.996	65559.86147
213.202	65525.51504
213.408	65566.7356
213.614	65573.61135
213.82	65621.78719
214.025	65605.71969
214.231	65651.65059
214.437	65610.30949
214.643	65507.21335
214.849	65571.31926
215.055	65578.19609
215.261	65635.56645
215.467	65569.02734
215.672	65649.3523
215.878	65509.50044
216.084	65628.676
216.29	65569.02734
216.496	65493.49454
216.701	65536.95938
216.907	65630.97263
217.113	65571.31926
217.318	65502.63971
217.524	65614.90003
217.73	65626.37955
217.935	65594.24835
218.141	65541.53836
218.346	65559.86147
218.552	65591.95463
218.758	65559.86147
218.963	65548.40819
219.169	65557.57046
219.374	65569.02734
219.58	65569.02734
219.785	65589.66108
219.991	65516.36277
220.196	65670.04348
220.401	65603.42506
220.607	65573.61135
220.812	65488.92302
221.017	65578.19609
221.223	65525.51504
221.428	65500.35315
221.633	65520.93855
221.839	65569.02734
222.044	65628.676
222.249	65559.86147
222.454	65552.98896
222.66	65555.27962
222.865	65601.13061
223.07	65454.65909
223.275	65575.90363
223.48	65543.82812
223.686	65628.676
223.891	65658.54654
224.096	65651.65059
224.301	65468.35991
224.506	65624.08328
224.711	65530.09224
224.916	65610.30949
225.121	65603.42506
225.326	65601.13061
225.531	65628.676
225.736	65608.0145
225.941	65637.86364
226.146	65587.36772
226.351	65557.57046
226.555	65555.27962
226.76	65550.69848
226.965	65653.94906
227.17	65596.54225
227.375	65619.49129
227.58	65603.42506
227.784	65534.67015
227.989	65693.05122
228.194	65614.90003
228.399	65543.82812
228.603	65635.56645
228.808	65610.30949
229.013	65520.93855
229.217	65573.61135
229.422	65626.37955
229.627	65587.36772
229.831	65608.0145
230.036	65539.24878
230.24	65566.7356
230.445	65543.82812
230.649	65566.7356
230.854	65557.57046
231.058	65596.54225
231.263	65585.07454
231.467	65552.98896
231.672	65591.95463
231.876	65573.61135
232.081	65523.2267
232.285	65546.11807
232.489	65543.82812
232.694	65612.60467
232.898	65523.2267
233.102	65479.7821
233.307	65566.7356
233.511	65589.66108
233.715	65541.53836
233.919	65518.65057
234.124	65633.26945
234.328	65672.34343
234.532	65569.02734
234.736	65530.09224
234.94	65624.08328
235.145	65564.44405
235.349	65552.98896
235.553	65459.22533
235.757	65468.35991
235.961	65626.37955
236.165	65619.49129
236.369	65534.67015
236.573	65536.95938
236.777	65633.26945
236.981	65559.86147
237.185	65495.78057
237.389	65594.24835
237.593	65573.61135
237.797	65543.82812
238.001	65539.24878
238.205	65555.27962
238.409	65610.30949
238.612	65614.90003
238.816	65452.37623
239.02	65578.19609
239.224	65591.95463
239.428	65541.53836
239.631	65564.44405
239.835	65548.40819
240.039	65578.19609
240.243	65527.80355
240.446	65502.63971
240.65	65628.676
240.854	65727.59766
241.057	65552.98896
241.261	65628.676
241.464	65649.3523
241.668	65525.51504
241.872	65614.90003
242.075	65575.90363
242.279	65564.44405
242.482	65612.60467
242.686	65603.42506
242.889	65511.78771
243.093	65614.90003
243.296	65518.65057
243.499	65575.90363
243.703	65578.19609
243.906	65637.86364
244.11	65548.40819
244.313	65582.78154
244.516	65557.57046
244.72	65518.65057
244.923	65640.161
245.126	65484.35221
245.33	65555.27962
245.533	65630.97263
245.736	65557.57046
245.939	65594.24835
246.142	65562.15267
246.346	65610.30949
246.549	65656.24771
246.752	65614.90003
246.955	65591.95463
247.158	65550.69848
247.361	65596.54225
247.564	65536.95938
247.767	65495.78057
247.971	65578.19609
248.174	65546.11807
248.377	65596.54225
248.58	65656.24771
248.783	65621.78719
248.985	65582.78154
249.188	65596.54225
249.391	65548.40819
249.594	65578.19609
249.797	65626.37955
250	65498.06677
250.203	65594.24835
250.406	65601.13061
250.609	65628.676
250.811	65605.71969
251.014	65605.71969
251.217	65637.86364
251.42	65621.78719
251.622	65454.65909
251.825	65518.65057
252.028	65605.71969
252.231	65610.30949
252.433	65624.08328
252.636	65516.36277
252.838	65543.82812
253.041	65580.48873
253.244	65530.09224
253.446	65479.7821
253.649	65566.7356
253.851	65523.2267
254.054	65601.13061
254.256	65514.07515
254.459	65605.71969
254.661	65548.40819
254.864	65626.37955
255.066	65422.71498
255.269	65585.07454
255.471	65550.69848
255.673	65534.67015
255.876	65605.71969
256.078	65550.69848
256.281	65562.15267
256.483	65578.19609
256.685	65633.26945
256.887	65569.02734
257.09	65559.86147
257.292	65624.08328
257.494	65534.67015
257.696	65594.24835
257.899	65624.08328
258.101	65482.06707
258.303	65555.27962
258.505	65653.94906
258.707	65587.36772
258.909	65614.90003
259.111	65674.64355
259.314	65555.27962
259.516	65605.71969
259.718	65518.65057
259.92	65564.44405
260.122	65591.95463
260.324	65605.71969
260.526	65498.06677
260.728	65562.15267
260.93	65543.82812
261.131	65660.84556
261.333	65619.49129
261.535	65582.78154
261.737	65610.30949
261.939	65536.95938
262.141	65573.61135
262.343	65530.09224
262.544	65548.40819
262.746	65548.40819
262.948	65630.97263
263.15	65580.48873
263.352	65509.50044
263.553	65578.19609
263.755	65630.97263
263.957	65504.92644
264.158	65541.53836
264.36	65564.44405
264.562	65527.80355
264.763	65614.90003
264.965	65546.11807
265.166	65598.83634
265.368	65502.63971
265.569	65608.0145
265.771	65603.42506
265.972	65539.24878
266.174	65608.0145
266.375	65594.24835
266.577	65580.48873
266.778	65548.40819
266.98	65578.19609
267.181	65628.676
267.383	65649.3523
267.584	65500.35315
267.785	65585.07454
267.987	65605.71969
268.188	65653.94906
268.389	65539.24878
268.591	65649.3523
268.792	65647.0542
268.993	65550.69848
269.194	65605.71969
269.396	65514.07515
269.597	65566.7356
269.798	65617.19557
269.999	65564.44405
270.2	65647.0542
270.401	65509.50044
270.603	65608.0145
270.804	65624.08328
271.005	65626.37955
271.206	65578.19609
271.407	65550.69848
271.608	65504.92644
271.809	65582.78154
272.01	65569.02734
272.211	65596.54225
272.412	65534.67015
272.613	65527.80355
272.814	65630.97263
273.015	65603.42506
273.216	65624.08328
273.416	65598.83634
273.617	65523.2267
273.818	65548.40819
274.019	65591.95463
274.22	65532.3811
274.421	65562.15267
274.621	65598.83634
274.822	65564.44405
275.023	65569.02734
275.224	65575.90363
275.424	65658.54654
275.625	65690.74961
275.826	65585.07454
276.026	65628.676
276.227	65591.95463
276.428	65543.82812
276.628	65536.95938
276.829	65539.24878
277.029	65591.95463
277.23	65569.02734
277.43	65546.11807
277.631	65502.63971
277.831	65660.84556
278.032	65637.86364
278.232	65591.95463
278.433	65608.0145
278.633	65500.35315
278.834	65610.30949
279.034	65539.24878
279.234	65509.50044
279.435	65580.48873
279.635	65559.86147
279.835	65587.36772
280.036	65498.06677
280.236	65672.34343
280.436	65608.0145
280.637	65580.48873
280.837	65514.07515
281.037	65585.07454
281.237	65585.07454
281.438	65598.83634
281.638	65608.0145
281.838	65603.42506
282.038	65603.42506
282.238	65580.48873
282.438	65589.66108
282.638	65587.36772
282.838	65605.71969
283.038	65559.86147
283.239	65601.13061
283.439	65582.78154
283.639	65486.63753
283.839	65617.19557
284.039	65557.57046
284.238	65582.78154
284.438	65539.24878
284.638	65633.26945
284.838	65610.30949
285.038	65612.60467
285.238	65635.56645
285.438	65575.90363
285.638	65573.61135
285.838	65578.19609
286.037	65543.82812
286.237	65617.19557
286.437	65624.08328
286.637	65601.13061
286.836	65598.83634
287.036	65649.3523
287.236	65546.11807
287.436	65633.26945
287.635	65569.02734
287.835	65578.19609
288.034	65582.78154
288.234	65488.92302
288.434	65555.27962
288.633	65591.95463
288.833	65626.37955
289.032	65681.54504
289.232	65569.02734
289.431	65569.02734
289.631	65605.71969
289.83	65500.35315
290.03	65628.676
290.229	65617.19557
290.429	65688.44819
290.628	65518.65057
290.828	65651.65059
291.027	65674.64355
291.226	65601.13061
291.426	65562.15267
291.625	65445.52871
291.824	65596.54225
292.024	65596.54225
292.223	65628.676
292.422	65587.36772
292.621	65605.71969
292.821	65552.98896
293.02	65591.95463
293.219	65520.93855
293.418	65626.37955
293.617	65532.3811
293.817	65619.49129
294.016	65491.2087
294.215	65523.2267
294.414	65665.44415
294.613	65601.13061
294.812	65587.36772
295.011	65614.90003
295.21	65564.44405
295.409	65653.94906
295.608	65699.95716
295.807	65619.49129
296.006	65555.27962
296.205	65589.66108
296.404	65454.65909
296.603	65608.0145
296.802	65493.49454
297.001	65617.19557
297.2	65614.90003
297.398	65633.26945
297.597	65520.93855
297.796	65658.54654
297.995	65642.45855
298.194	65539.24878
298.392	65603.42506
298.591	65596.54225
298.79	65640.161
298.988	65608.0145
299.187	65603.42506
299.386	65573.61135
299.585	65591.95463
299.783	65575.90363
299.982	65511.78771
300.18	65610.30949
300.379	65598.83634
300.578	65601.13061
300.776	65658.54654
300.975	65564.44405
301.173	65507.21335
301.372	65591.95463
301.57	65610.30949
301.769	65614.90003
301.967	65543.82812
302.166	65591.95463
302.364	65635.56645
302.562	65587.36772
302.761	65541.53836
302.959	65596.54225
303.157	65550.69848
303.356	65624.08328
303.554	65532.3811
303.752	65591.95463
303.951	65557.57046
304.149	65470.644
304.347	65564.44405
304.546	65534.67015
304.744	65571.31926
304.942	65555.27962
305.14	65624.08328
305.338	65649.3523
305.536	65601.13061
305.735	65603.42506
305.933	65610.30949
306.131	65619.49129
306.329	65532.3811
306.527	65649.3523
306.725	65596.54225
306.923	65543.82812
307.121	65486.63753
307.319	65621.78719
307.517	65624.08328
307.715	65573.61135
307.913	65463.79227
308.111	65550.69848
308.309	65566.7356
308.507	65598.83634
308.705	65587.36772
308.903	65642.45855
309.1	65523.2267
309.298	65527.80355
309.496	65569.02734
309.694	65605.71969
309.892	65630.97263
310.089	65637.86364
310.287	65587.36772
310.485	65617.19557
310.683	65573.61135
310.88	65591.95463
311.078	65598.83634
311.276	65534.67015
311.473	65585.07454
311.671	65575.90363
311.869	65532.3811
312.066	65582.78154
312.264	65580.48873
312.461	65502.63971
312.659	65523.2267
312.856	65534.67015
313.054	65612.60467
313.251	65608.0145
313.449	65520.93855
313.646	65589.66108
313.844	65633.26945
314.041	65589.66108
314.239	65518.65057
314.436	65509.50044
314.634	65477.49731
314.831	65534.67015
315.028	65656.24771
315.226	65589.66108
315.423	65518.65057
315.62	65624.08328
315.817	65571.31926
316.015	65463.79227
316.212	65619.49129
316.409	65539.24878
316.606	65555.27962
316.804	65601.13061
317.001	65635.56645
317.198	65536.95938
317.395	65536.95938
317.592	65536.95938
317.789	65587.36772
317.987	65564.44405
318.184	65617.19557
318.381	65653.94906
318.578	65539.24878
318.775	65649.3523
318.972	65644.75629
319.169	65642.45855
319.366	65534.67015
319.563	65571.31926
319.76	65610.30949
319.957	65601.13061
320.154	65614.90003
320.351	65532.3811
320.547	65555.27962
320.744	65594.24835
320.941	65472.92826
321.138	65587.36772
321.335	65573.61135
321.532	65621.78719
321.728	65541.53836
321.925	65640.161
322.122	65461.50871
322.319	65688.44819
322.515	65532.3811
322.712	65546.11807
322.909	65658.54654
323.105	65663.14477
323.302	65523.2267
323.499	65502.63971
323.695	65550.69848
323.892	65580.48873
324.089	65536.95938
324.285	65603.42506
324.482	65612.60467
324.678	65663.14477
324.875	65617.19557
325.071	65566.7356
325.268	65571.31926
325.464	65596.54225
325.661	65575.90363
325.857	65589.66108
326.054	65624.08328
326.25	65550.69848
326.446	65548.40819
326.643	65569.02734
326.839	65591.95463
327.035	65672.34343
327.232	65523.2267
327.428	65667.74373
327.624	65660.84556
327.821	65578.19609
328.017	65637.86364
328.213	65614.90003
328.409	65578.19609
328.606	65557.57046
328.802	65559.86147
328.998	65594.24835
329.194	65656.24771
329.39	65534.67015
329.586	65578.19609
329.783	65539.24878
329.979	65566.7356
330.175	65596.54225
330.371	65578.19609
330.567	65594.24835
330.763	65566.7356
330.959	65630.97263
331.155	65603.42506
331.351	65612.60467
331.547	65548.40819
331.743	65688.44819
331.939	65585.07454
332.135	65612.60467
332.33	65511.78771
332.526	65575.90363
332.722	65559.86147
332.918	65527.80355
333.114	65630.97263
333.31	65475.2127
333.506	65502.63971
333.701	65580.48873
333.897	65690.74961
334.093	65536.95938
334.289	65642.45855
334.484	65477.49731
334.68	65493.49454
334.876	65520.93855
335.071	65587.36772
335.267	65516.36277
335.463	65598.83634
335.658	65596.54225
335.854	65706.86477
336.049	65582.78154
336.245	65612.60467
336.441	65608.0145
336.636	65559.86147
336.832	65541.53836
337.027	65459.22533
337.223	65647.0542
337.418	65504.92644
337.613	65637.86364
337.809	65555.27962
338.004	65630.97263
338.2	65573.61135
338.395	65624.08328
338.591	65530.09224
338.786	65637.86364
338.981	65633.26945
339.177	65642.45855
339.372	65569.02734
339.567	65509.50044
339.762	65541.53836
339.958	65709.16768
340.153	65667.74373
340.348	65039.71602
340.543	65589.66108
340.739	65633.26945
340.934	65603.42506
341.129	65550.69848
341.324	65550.69848
341.519	65658.54654
341.714	65722.98904
341.909	65637.86364
342.104	65578.19609
342.299	65587.36772
342.495	65610.30949
342.69	65628.676
342.885	65614.90003
343.08	65329.35938
343.275	65495.78057
343.469	65598.83634
343.664	65543.82812
343.859	65587.36772
344.054	65649.3523
344.249	65630.97263
344.444	65575.90363
344.639	65610.30949
344.834	65635.56645
345.029	65582.78154
345.223	65557.57046
345.418	65637.86364
345.613	65569.02734
345.808	65587.36772
346.003	65591.95463
346.197	65587.36772
346.392	65571.31926
346.587	65475.2127
346.781	65601.13061
346.976	65559.86147
347.171	65504.92644
347.365	65610.30949
347.56	65608.0145
347.755	65530.09224
347.949	65605.71969
348.144	65635.56645
348.338	65573.61135
348.533	65569.02734
348.727	65619.49129
348.922	65536.95938
349.116	65651.65059
349.311	65580.48873
349.505	65651.65059
349.7	65635.56645
349.894	65624.08328
350.089	65559.86147
350.283	65594.24835
350.477	65578.19609
350.672	65596.54225
350.866	65518.65057
351.06	65573.61135
351.255	65578.19609
351.449	65582.78154
351.643	65582.78154
351.837	65539.24878
352.032	65679.24436
352.226	65628.676
352.42	65633.26945
352.614	65516.36277
352.809	65619.49129
353.003	65575.90363
353.197	65562.15267
353.391	65598.83634
353.585	65564.44405
353.779	65660.84556
353.973	65516.36277
354.167	65552.98896
354.361	65640.161
354.555	65527.80355
354.749	65596.54225
354.943	65619.49129
355.137	65555.27962
355.331	65603.42506
355.525	65617.19557
355.719	65555.27962
355.913	65594.24835
356.107	65566.7356
356.301	65596.54225
356.495	65591.95463
356.689	65582.78154
356.883	65555.27962
357.076	65651.65059
357.27	65520.93855
357.464	65617.19557
357.658	65518.65057
357.852	65589.66108
358.045	65557.57046
358.239	65630.97263
358.433	65605.71969
358.626	65617.19557
358.82	65589.66108
359.014	65569.02734
359.207	65578.19609
359.401	65670.04348
359.595	65557.57046
359.788	65610.30949
359.982	65582.78154
360.175	65548.40819
360.369	65605.71969
360.563	65578.19609
360.756	65589.66108
360.95	65566.7356
361.143	65676.94386
361.336	65727.59766
361.53	65633.26945
361.723	65619.49129
361.917	65562.15267
362.11	65621.78719
362.304	65596.54225
362.497	65587.36772
362.69	65461.50871
362.884	65571.31926
363.077	65610.30949
363.27	65603.42506
363.464	65578.19609
363.657	65619.49129
363.85	65536.95938
364.043	65605.71969
364.237	65578.19609
364.43	65550.69848
364.623	65546.11807
364.816	65635.56645
365.009	65525.51504
365.202	65610.30949
365.396	65509.50044
365.589	65571.31926
365.782	65571.31926
365.975	65651.65059
366.168	65541.53836
366.361	65504.92644
366.554	65587.36772
366.747	65619.49129
366.94	65552.98896
367.133	65591.95463
367.326	65603.42506
367.519	65605.71969
367.712	65713.77405
367.905	65601.13061
368.098	65626.37955
368.291	65484.35221
368.484	65587.36772
368.676	65557.57046
368.869	65658.54654
369.062	65598.83634
369.255	65582.78154
369.448	65546.11807
369.64	65571.31926
369.833	65610.30949
370.026	65536.95938
370.219	65653.94906
370.411	65482.06707
370.604	65667.74373
370.797	65571.31926
370.989	65543.82812
371.182	65660.84556
371.375	65532.3811
371.567	65562.15267
371.76	65594.24835
371.952	65663.14477
372.145	65566.7356
372.338	65559.86147
372.53	65569.02734
372.723	65647.0542
372.915	65594.24835
373.108	65621.78719
373.3	65555.27962
373.493	65548.40819
373.685	65546.11807
373.877	65640.161
374.07	65530.09224
374.262	65520.93855
374.455	65630.97263
374.647	65688.44819
374.839	65523.2267
375.032	65578.19609
375.224	65578.19609
375.416	65637.86364
375.609	65141.2387
375.801	65585.07454
375.993	65630.97263
376.185	65642.45855
376.378	65594.24835
376.57	65573.61135
376.762	65569.02734
376.954	65555.27962
377.146	65541.53836
377.338	65633.26945
377.53	65624.08328
377.723	65539.24878
377.915	65628.676
378.107	65587.36772
378.299	65619.49129
378.491	65614.90003
378.683	65569.02734
378.875	65610.30949
379.067	65520.93855
379.259	65548.40819
379.451	65596.54225
379.643	65532.3811
379.835	65562.15267
380.027	65516.36277
380.219	65628.676
380.41	65582.78154
380.602	65575.90363
380.794	65674.64355
380.986	65619.49129
381.178	65589.66108
381.37	65596.54225
381.561	65580.48873
381.753	65498.06677
381.945	65511.78771
382.137	65578.19609
382.328	65608.0145
382.52	65619.49129
382.712	65612.60467
382.903	65516.36277
383.095	65598.83634
383.287	65644.75629
383.478	65557.57046
383.67	65617.19557
383.862	65575.90363
384.053	65569.02734
384.245	65614.90003
384.436	65546.11807
384.628	65573.61135
384.819	65601.13061
385.011	65541.53836
385.202	65594.24835
385.394	65614.90003
385.585	65488.92302
385.777	65610.30949
385.968	65651.65059
386.159	65587.36772
386.351	65580.48873
386.542	65552.98896
386.734	65504.92644
386.925	65605.71969
387.116	65564.44405
387.308	65569.02734
387.499	65630.97263
387.69	65546.11807
387.881	65504.92644
388.073	65580.48873
388.264	65578.19609
388.455	65665.44415
388.646	65532.3811
388.837	65550.69848
389.029	65573.61135
389.22	65598.83634
389.411	65619.49129
389.602	65575.90363
389.793	65610.30949
389.984	65589.66108
390.175	65559.86147
390.366	65546.11807
390.557	65642.45855
390.748	65582.78154
390.939	65658.54654
391.13	65605.71969
391.321	65569.02734
391.512	65601.13061
391.703	65587.36772
391.894	65614.90003
392.085	65637.86364
392.276	65628.676
392.467	65642.45855
392.658	65624.08328
392.849	65578.19609
393.039	65608.0145
393.23	65591.95463
393.421	65566.7356
393.612	65582.78154
393.803	65589.66108
393.993	65488.92302
394.184	65552.98896
394.375	65640.161
394.566	65578.19609
394.756	65566.7356
394.947	65530.09224
395.138	65612.60467
395.328	65516.36277
395.519	65536.95938
395.709	65642.45855
395.9	65484.35221
396.091	65612.60467
396.281	65614.90003
396.472	65608.0145
396.662	65633.26945
396.853	65624.08328
397.043	65605.71969
397.234	65610.30949
397.424	65564.44405
397.615	65564.44405
397.805	65573.61135
397.996	65663.14477
398.186	65527.80355
398.376	65509.50044
398.567	65621.78719
398.757	65591.95463
398.947	65722.98904
399.138	65539.24878
399.328	65527.80355
399.518	65644.75629
399.709	65674.64355
399.899	65587.36772
400.089	65624.08328
400.279	65578.19609
400.47	65585.07454
400.66	65582.78154
400.85	65511.78771
401.04	65548.40819
401.23	65523.2267
401.421	65562.15267
401.611	65605.71969
401.801	65546.11807
401.991	65578.19609
402.181	65596.54225
402.371	65564.44405
402.561	65516.36277
402.751	65598.83634
402.941	65550.69848
403.131	65509.50044
403.321	65619.49129
403.511	65569.02734
403.701	65539.24878
403.891	65578.19609
404.081	65575.90363
404.271	65626.37955
404.461	65507.21335
404.651	65635.56645
404.84	65557.57046
405.03	65548.40819
405.22	65624.08328
405.41	65612.60467
405.6	65525.51504
405.789	65530.09224
405.979	65514.07515
406.169	65653.94906
406.359	65587.36772
406.548	65637.86364
406.738	65637.86364
406.928	65511.78771
407.118	65546.11807
407.307	65532.3811
407.497	65580.48873
407.686	65523.2267
407.876	65630.97263
408.066	65610.30949
408.255	65619.49129
408.445	65612.60467
408.634	65539.24878
408.824	65559.86147
409.013	65603.42506
409.203	65525.51504
409.392	65559.86147
409.582	65564.44405
409.771	65658.54654
409.961	65617.19557
410.15	65546.11807
410.34	65557.57046
410.529	65633.26945
410.718	65573.61135
410.908	65445.52871
411.097	65633.26945
411.286	65617.19557
411.476	65647.0542
411.665	65608.0145
411.854	65598.83634
412.044	65642.45855
412.233	65557.57046
412.422	65557.57046
412.611	65575.90363
412.8	65534.67015
412.99	65621.78719
413.179	65541.53836
413.368	65614.90003
413.557	65640.161
413.746	65591.95463
413.935	65614.90003
414.124	65660.84556
414.313	65525.51504
414.503	65559.86147
414.692	65617.19557
414.881	65504.92644
415.07	65520.93855
415.259	65594.24835
415.448	65518.65057
415.637	65575.90363
415.826	65557.57046
416.015	65649.3523
416.203	65594.24835
416.392	65543.82812
416.581	65605.71969
416.77	65564.44405
416.959	65552.98896
417.148	65612.60467
417.337	65624.08328
417.525	65569.02734
417.714	65550.69848
417.903	65628.676
418.092	65624.08328
418.281	65557.57046
418.469	65566.7356
418.658	65571.31926
418.847	65601.13061
419.035	65635.56645
419.224	65649.3523
419.413	65626.37955
419.601	65569.02734
419.79	65658.54654
419.979	65594.24835
420.167	65628.676
420.356	65591.95463
420.544	65555.27962
420.733	65624.08328
420.921	65603.42506
421.11	65555.27962
421.299	65541.53836
421.487	65585.07454
421.675	65580.48873
421.864	65589.66108
422.052	65608.0145
422.241	65488.92302
422.429	65601.13061
422.618	65591.95463
422.806	65569.02734
422.994	65601.13061
423.183	65546.11807
423.371	65601.13061
423.559	65559.86147
423.748	65532.3811
423.936	65605.71969
424.124	65690.74961
424.312	65626.37955
424.501	65569.02734
424.689	65591.95463
424.877	65589.66108
425.065	65587.36772
425.254	65605.71969
425.442	65443.24655
425.63	65511.78771
425.818	65502.63971
426.006	65591.95463
426.194	65498.06677
426.382	65516.36277
426.57	65548.40819
426.758	65564.44405
426.946	65601.13061
427.134	65539.24878
427.323	65617.19557
427.51	65587.36772
427.698	65573.61135
427.886	65543.82812
428.074	65507.21335
428.262	65688.44819
428.45	65578.19609
428.638	65571.31926
428.826	65546.11807
429.014	65619.49129
429.202	65693.05122
429.39	65656.24771
429.577	65516.36277
429.765	65518.65057
429.953	65514.07515
430.141	65589.66108
430.329	65546.11807
430.516	65614.90003
430.704	65454.65909
430.892	65603.42506
431.079	65676.94386
431.267	65518.65057
431.455	65653.94906
431.643	65507.21335
431.83	65555.27962
432.018	65543.82812
432.205	65603.42506
432.393	65651.65059
432.581	65587.36772
432.768	65518.65057
432.956	65523.2267
433.143	65564.44405
433.331	65536.95938
433.518	65603.42506
433.706	65585.07454
433.893	65477.49731
434.081	65610.30949
434.268	65493.49454
434.456	65626.37955
434.643	65614.90003
434.83	65527.80355
435.018	65527.80355
435.205	65610.30949
435.392	65610.30949
435.58	65683.8459
435.767	65525.51504
435.954	65580.48873
436.142	65518.65057
436.329	65619.49129
436.516	65601.13061
436.703	65543.82812
436.891	65504.92644
437.078	65530.09224
437.265	65525.51504
437.452	65534.67015
437.639	65569.02734
437.827	65550.69848
438.014	65532.3811
438.201	65585.07454
438.388	65527.80355
438.575	65578.19609
438.762	65580.48873
438.949	65594.24835
439.136	65539.24878
439.323	65486.63753
439.51	65587.36772
439.697	65509.50044
439.884	65514.07515
440.071	65539.24878
440.258	65511.78771
440.445	65523.2267
440.632	65329.35938
440.819	65532.3811
441.006	65461.50871
441.193	65546.11807
441.38	65509.50044
441.566	65571.31926
441.753	65580.48873
441.94	65514.07515
442.127	65578.19609
442.314	65498.06677
442.5	65475.2127
442.687	65491.2087
442.874	65518.65057
443.061	65525.51504
443.247	65509.50044
443.434	65420.43457
443.621	65587.36772
443.807	65532.3811
443.994	65409.0351
444.181	65546.11807
444.367	65575.90363
444.554	65491.2087
444.74	65516.36277
444.927	65546.11807
445.114	65488.92302
445.3	65363.48039
445.487	65440.96457
445.673	65456.94212
445.86	65486.63753
446.046	65511.78771
446.233	65475.2127
446.419	65507.21335
446.605	65402.19749
446.792	65406.75572
446.978	65546.11807
447.165	65482.06707
447.351	65507.21335
447.537	65520.93855
447.724	65530.09224
447.91	65415.87426
448.096	65440.96457
448.283	65377.13958
448.469	65479.7821
448.655	65463.79227
448.841	65411.31464
449.028	65450.09355
449.214	65436.40113
449.4	65413.59436
449.586	65434.11967
449.773	65406.75572
449.959	65434.11967
450.145	65320.26691
450.331	65450.09355
450.517	65479.7821
450.703	65358.92871
450.889	65452.37623
451.075	65397.63995
451.261	65322.53977
451.447	65315.72169
451.633	65395.36144
451.819	65383.97148
452.005	65313.44934
452.191	65381.69401
452.377	65363.48039
452.563	65340.72879
452.749	65345.27774
452.935	65320.26691
453.121	65281.6541
453.307	65311.17715
453.493	65254.42724
453.679	65295.27659
453.865	65265.76884
454.05	65238.55601
454.236	65283.9241
454.422	65349.82738
454.608	65306.63329
454.794	65327.08601
454.979	65336.18051
455.165	65304.36161
455.351	65245.35697
455.537	65249.89177
455.722	65175.15217
455.908	65256.69523
456.094	65193.25438
456.279	65172.89013
456.465	65138.9791
456.65	65234.02287
456.836	65202.30942
457.022	65190.99103
457.207	65206.83793
457.393	65159.32132
457.578	65211.3671
457.764	65114.13421
457.949	65186.46482
458.135	65125.42492
458.32	65261.2317
458.506	65213.63194
458.691	65177.41437
458.877	65157.06042
459.062	65222.69292
459.248	65229.49039
459.433	65105.10454
459.618	65082.54162
459.804	65179.67674
459.989	65087.05292
460.174	65082.54162
460.36	65109.61905
460.545	65123.16645
460.73	65138.9791
460.915	65127.68354
461.101	65136.71966
461.286	65105.10454
461.471	65123.16645
461.656	65236.28936
461.842	65082.54162
462.027	65111.87655
462.212	65082.54162
462.397	65064.50279
462.582	65096.07745
462.767	64994.69812
462.952	65190.99103
463.138	65075.77586
463.323	64999.19708
463.508	65096.07745
463.693	65055.4872
463.878	65087.05292
464.063	64996.94752
464.248	65032.95932
464.433	65032.95932
464.618	65032.95932
464.803	65028.45564
464.988	65030.7074
465.173	64963.22285
465.357	65003.69667
465.542	65008.19689
465.727	64911.57939
465.912	64960.97578
466.097	65017.19921
466.282	65017.19921
466.467	64960.97578
466.651	64916.06689
466.836	64916.06689
467.021	65073.52093
467.206	64967.71745
467.391	65026.20404
467.575	64987.95084
467.76	64978.95667
467.945	64893.6355
468.129	64925.04374
468.314	64886.90906
468.499	65003.69667
468.683	64875.70136
468.868	64956.48211
469.053	64945.25065
469.237	64929.53309
469.422	64875.70136
469.606	64931.77799
469.791	64994.69812
469.975	64913.82307
470.16	64940.75915
470.344	64904.84928
470.529	64976.70851
470.713	64808.53454
470.898	64969.96498
471.082	64931.77799
471.267	64978.95667
471.451	64963.22285
471.636	65080.28621
471.82	64969.96498
472.004	64839.8622
472.189	64958.72887
472.373	65032.95932
472.557	65014.94839
472.742	65001.4468
472.926	65010.44723
473.11	65021.70131
473.295	64927.28834
473.479	64936.26826
473.663	64945.25065
473.847	65008.19689
474.031	64999.19708
474.216	64994.69812
474.4	65019.45018
474.584	65012.69773
474.768	64974.46051
474.952	64909.33587
475.136	64907.0925
475.32	65039.71602
475.505	64927.28834
475.689	64873.46028
475.873	64947.49663
476.057	64938.51363
476.241	64985.70207
476.425	64911.57939
476.609	64875.70136
476.793	64951.98906
476.977	65021.70131
477.161	64916.06689
477.345	64898.12055
477.529	65014.94839
477.713	64860.01697
477.896	64996.94752
478.08	64842.10102
478.264	64909.33587
478.448	64934.02305
478.632	64864.49747
478.816	65073.52093
478.999	64880.18398
479.183	64963.22285
479.367	64931.77799
479.551	64768.29908
479.735	64871.21935
479.918	64907.0925
480.102	64839.8622
480.286	64877.9426
480.469	64945.25065
480.653	64842.10102
480.837	64857.77695
481.02	64884.66721
481.204	64844.33998
481.388	64815.24514
481.571	64716.95672
481.755	64853.29735
481.938	64844.33998
482.122	64880.18398
482.305	64783.94049
482.489	64701.34614
482.673	64745.96677
482.856	64819.71962
483.04	64813.00812
483.223	64804.06155
483.406	64824.1947
483.59	64819.71962
483.773	64763.83144
483.957	64844.33998
484.14	64734.80613
484.323	64699.11664
484.507	64741.50207
484.69	64775.00165
484.874	64846.5791
485.057	64792.8817
485.24	64748.19934
485.423	64884.66721
485.607	64725.88025
485.79	64783.94049
485.973	64739.26994
486.156	64674.60171
486.34	64690.20009
486.523	64672.37394
486.706	64732.57444
486.889	64804.06155
487.072	64699.11664
487.256	64679.05766
487.439	64739.26994
487.622	64681.28586
487.805	64734.80613
487.988	64705.80558
488.171	64674.60171
488.354	64663.46433
488.537	64728.1115
488.72	64681.28586
488.903	64656.78364
489.086	64710.2656
489.269	64670.14632
489.452	64665.69152
489.635	64614.5025
489.818	64505.69715
490.001	64743.73435
490.184	64703.57579
490.367	64701.34614
490.55	64605.60776
490.732	64499.04648
490.915	64643.42612
491.098	64605.60776
491.281	64730.3429
491.464	64656.78364
491.647	64683.5142
491.829	64690.20009
492.012	64598.9382
492.195	64545.62739
492.378	64634.52397
492.56	64490.18084
492.743	64512.34907
492.926	64483.53307
493.108	64623.39951
493.291	64603.38443
493.474	64465.8117
493.656	64481.31742
493.839	64425.9706
494.022	64492.39705
494.204	64421.54653
494.387	64448.0991
494.569	64585.6029
494.752	64454.7403
494.934	64479.1019
495.117	64465.8117
495.299	64503.48012
495.482	64434.82037
495.664	64388.3832
495.847	64470.24122
496.029	64510.13162
496.212	64258.23129
496.394	64481.31742
496.576	64434.82037
496.759	64527.87506
496.941	64350.83459
497.123	64196.62327
497.306	64503.48012
497.488	64417.123
497.67	64485.74885
497.853	64479.1019
498.035	64353.04226
498.217	64286.8695
498.4	64357.45801
498.582	64507.91432
498.764	64432.60772
498.946	64361.87429
499.128	64375.12634
499.311	64403.85565
499.493	64496.82986
499.675	64364.08263
499.857	64326.55891
500.039	64289.07335
500.221	64326.55891
500.403	64306.70888
500.585	64205.41825
500.767	64267.0407
500.949	64306.70888
501.132	64330.97148
501.314	64364.08263
501.496	64223.01435
501.678	64437.03315
501.859	64293.48145
502.041	64284.66578
502.223	64284.66578
502.405	64317.73536
502.587	64220.81439
502.769	64245.02106
502.951	64242.81981
503.133	64271.44619
503.315	64326.55891
503.497	64300.09458
503.678	64291.27733
503.86	64379.54476
504.042	64174.64475
504.224	64205.41825
504.406	64264.83816
504.587	64319.94105
504.769	64273.64913
504.951	64249.42395
505.132	64357.45801
505.314	64291.27733
505.496	64253.82736
505.678	64319.94105
505.859	64302.29921
506.041	64253.82736
506.222	64269.24338
506.404	64264.83816
506.586	64278.0554
506.767	64214.21527
506.949	64322.14687
507.13	64271.44619
507.312	64280.25873
507.493	64139.50551
507.675	64256.02926
507.856	64253.82736
508.038	64344.21236
508.219	64322.14687
508.401	64319.94105
508.582	64225.21444
508.764	64262.63574
508.945	64229.61501
509.126	64317.73536
509.308	64300.09458
509.489	64284.66578
509.671	64342.00521
509.852	64249.42395
510.033	64342.00521
510.214	64315.5298
510.396	64355.25007
510.577	64421.54653
510.758	64238.4177
510.94	64249.42395
511.121	64284.66578
511.302	64286.8695
511.483	64322.14687
511.664	64258.23129
511.846	64370.70846
512.027	64289.07335
512.208	64353.04226
512.389	64339.7982
512.57	64256.02926
512.751	64293.48145
512.932	64275.8522
513.113	64185.63242
513.294	64308.91391
513.476	64295.68569
513.657	64328.76513
513.838	64403.85565
514.019	64264.83816
514.2	64344.21236
514.381	64289.07335
514.561	64269.24338
514.742	64366.29111
514.923	64297.89007
515.104	64280.25873
515.285	64324.35282
515.466	64355.25007
515.647	64392.80323
515.828	64247.22244
516.009	64291.27733
516.189	64366.29111
516.37	64401.6449
516.551	64375.12634
516.732	64375.12634
516.913	64339.7982
517.093	64368.49972
517.274	64375.12634
517.455	64216.41485
517.636	64289.07335
517.816	64280.25873
517.997	64304.50398
518.178	64311.11908
518.358	64410.48872
518.539	64337.59132
518.72	64319.94105
518.9	64308.91391
519.081	64322.14687
519.261	64271.44619
519.442	64187.83033
519.622	64304.50398
519.803	64308.91391
519.984	64258.23129
520.164	64335.38457
520.345	64315.5298
520.525	64302.29921
520.705	64357.45801
520.886	64253.82736
521.066	64468.02639
521.247	64324.35282
521.427	64328.76513
521.608	64170.25058
521.788	64355.25007
521.968	64157.07109
522.149	64372.91733
522.329	64295.68569
522.509	64403.85565
522.69	64355.25007
522.87	64383.96371
523.05	64410.48872
523.231	64390.59315
523.411	64350.83459
523.591	64297.89007
523.771	64379.54476
523.951	64293.48145
524.132	64275.8522
524.312	64326.55891
524.492	64355.25007
524.672	64300.09458
524.852	64275.8522
525.032	64337.59132
525.213	64304.50398
525.393	64236.21683
525.573	64412.70001
525.753	64264.83816
525.933	64291.27733
526.113	64297.89007
526.293	64401.6449
526.473	64370.70846
526.653	64225.21444
526.833	64361.87429
527.013	64419.3347
527.193	64335.38457
527.373	64350.83459
527.553	64324.35282
527.733	64293.48145
527.913	64381.75417
528.092	64521.22023
528.272	64306.70888
528.452	64364.08263
528.632	64443.67231
528.812	64348.62704
528.992	64297.89007
529.171	64330.97148
529.351	64425.9706
529.531	64419.3347
529.711	64315.5298
529.89	64417.123
530.07	64308.91391
530.25	64223.01435
530.43	64227.41466
530.609	64350.83459
530.789	64333.17796
530.969	64322.14687
531.148	64390.59315
531.328	64428.18284
531.507	64381.75417
531.687	64295.68569
531.867	64421.54653
532.046	64280.25873
532.226	64386.17339
532.405	64324.35282
532.585	64346.41963
532.764	64368.49972
532.944	64223.01435
533.123	64350.83459
533.303	64401.6449
533.482	64225.21444
533.662	64377.33548
533.841	64319.94105
534.021	64284.66578
534.2	64372.91733
534.379	64417.123
534.559	64355.25007
534.738	64315.5298
534.917	64456.95431
535.097	64346.41963
535.276	64342.00521
535.455	64300.09458
535.635	64434.82037
535.814	64379.54476
535.993	64311.11908
536.172	64443.67231
536.352	64406.06654
536.531	64425.9706
536.71	64333.17796
536.889	64353.04226
537.068	64392.80323
537.248	64412.70001
537.427	64275.8522
537.606	64346.41963
537.785	64350.83459
537.964	64366.29111
538.143	64430.39521
538.322	64381.75417
538.501	64348.62704
538.68	64403.85565
538.859	64300.09458
539.038	64439.24607
539.217	64439.24607
539.396	64507.91432
539.575	64364.08263
539.754	64346.41963
539.933	64311.11908
540.112	64532.31231
540.291	64370.70846
540.47	64372.91733
540.649	64375.12634
540.828	64532.31231
541.007	64342.00521
541.186	64450.3127
541.364	64350.83459
541.543	64432.60772
541.722	64388.3832
541.901	64425.9706
542.08	64275.8522
542.258	64313.32437
542.437	64456.95431
542.616	64322.14687
542.795	64476.88653
542.973	64432.60772
543.152	64441.45912
543.331	64419.3347
543.509	64465.8117
543.688	64346.41963
543.867	64443.67231
544.045	64456.95431
544.224	64306.70888
544.402	64047.41751
544.581	64410.48872
544.76	64507.91432
544.938	64401.6449
545.117	64370.70846
545.295	64419.3347
545.474	64417.123
545.652	64492.39705
545.831	64443.67231
546.009	64313.32437
546.188	64417.123
546.366	64430.39521
546.544	64408.27756
546.723	64403.85565
546.901	64397.22379
547.08	64339.7982
547.258	64450.3127
547.436	64448.0991
547.615	64496.82986
547.793	64423.7585
547.971	64406.06654
548.15	64421.54653
548.328	64368.49972
548.506	64306.70888
548.684	64280.25873
548.863	64441.45912
549.041	64472.45619
549.219	64530.09361
549.397	64392.80323
549.576	64443.67231
549.754	64401.6449
549.932	64428.18284
550.11	64470.24122
550.288	64505.69715
550.466	64592.26991
550.644	64368.49972
550.822	64465.8117
551.001	64505.69715
551.179	64558.94751
551.357	64494.61338
551.535	64437.03315
551.713	64496.82986
551.891	64501.26323
552.069	64545.62739
552.247	64505.69715
552.425	64541.18847
552.603	64541.18847
552.781	64519.00223
552.958	64550.06687
553.136	64527.87506
553.314	64643.42612
553.492	64598.9382
553.67	64625.62411
553.848	64638.97476
554.026	64737.03796
554.204	64719.18738
554.381	64659.01039
554.559	64721.41819
554.737	64795.11737
554.915	64728.1115
555.092	64685.74269
555.27	64759.36439
555.448	64721.41819
555.626	64772.76731
555.803	64860.01697
555.981	64687.97132
556.159	64817.4823
556.336	64826.43246
556.514	64889.15105
556.692	64844.33998
556.869	64817.4823
557.047	64813.00812
557.224	64844.33998
557.402	64860.01697
557.58	64783.94049
557.757	64898.12055
557.935	64996.94752
558.112	64902.60622
558.29	64891.3932
558.467	64996.94752
558.645	64999.19708
558.822	65012.69773
559	64985.70207
559.177	64960.97578
559.354	64936.26826
559.532	64943.00482
559.709	64974.46051
559.887	64936.26826
560.064	65037.46363
560.241	64913.82307
560.419	64934.02305
560.596	64913.82307
560.773	64907.0925
560.951	64889.15105
561.128	64772.76731
561.305	65001.4468
561.482	64943.00482
561.66	64891.3932
561.837	64886.90906
562.014	64936.26826
562.191	65010.44723
562.368	64956.48211
562.546	64889.15105
562.723	64990.19978
562.9	64958.72887
563.077	64884.66721
563.254	64981.20498
563.431	64949.74277
563.608	64862.25714
563.785	64978.95667
563.962	64918.31088
564.139	65008.19689
564.317	64891.3932
564.494	65023.9526
564.671	64826.43246
564.848	64922.7993
565.025	64974.46051
565.201	65001.4468
565.378	64931.77799
565.555	64929.53309
565.732	64965.47007
565.909	64974.46051
566.086	64956.48211
566.263	65005.9467
566.44	64960.97578
566.617	65001.4468
566.794	64922.7993
566.97	64985.70207
567.147	65055.4872
567.324	64958.72887
567.501	65019.45018
567.678	64956.48211
567.854	64978.95667
568.031	65089.30881
568.208	64958.72887
568.384	65023.9526
568.561	64999.19708
568.738	65023.9526
568.915	65001.4468
569.091	65075.77586
569.268	65035.2114
569.444	65084.79719
569.621	65055.4872
569.798	65082.54162
569.974	65026.20404
570.151	65021.70131
570.327	65037.46363
570.504	65010.44723
570.681	65105.10454
570.857	65073.52093
571.034	65082.54162
571.21	65032.95932
571.387	65179.67674
571.563	65152.53912
571.739	64990.19978
571.916	65202.30942
572.092	65127.68354
572.269	65075.77586
572.445	65089.30881
572.622	65136.71966
572.798	65075.77586
572.974	65129.94233
573.151	65186.46482
573.327	65127.68354
573.503	65026.20404
573.68	65188.72784
573.856	65181.93927
574.032	65186.46482
574.208	65066.75709
574.385	65091.56486
574.561	65204.5736
574.737	65177.41437
574.913	65073.52093
575.089	65177.41437
575.266	65181.93927
575.442	65193.25438
575.618	65032.95932
575.794	65154.79969
575.97	65163.8436
576.146	65093.82108
576.322	65159.32132
576.499	65050.98036
576.675	65069.01154
576.851	65071.26615
577.027	64994.69812
577.203	65127.68354
577.379	65168.36654
577.555	65123.16645
577.731	65078.03095
577.907	64752.66491
578.083	65032.95932
578.259	65105.10454
578.435	65080.28621
578.611	64960.97578
578.786	64976.70851
578.962	65028.45564
579.138	65141.2387
579.314	65032.95932
579.49	65105.10454
579.666	65008.19689
579.842	65084.79719
580.017	65084.79719
580.193	65071.26615
580.369	65019.45018
580.545	65044.22128
580.72	64949.74277
580.896	65080.28621
581.072	64969.96498
581.248	65017.19921
581.423	64945.25065
581.599	65048.72717
581.775	65008.19689
581.95	65010.44723
582.126	65037.46363
582.302	64940.75915
582.477	65003.69667
582.653	65064.50279
582.829	65048.72717
583.004	65138.9791
583.18	65035.2114
583.355	65073.52093
583.531	65003.69667
583.706	64981.20498
583.882	65073.52093
584.057	65157.06042
584.233	65019.45018
584.408	64920.55501
584.584	65039.71602
584.759	65102.84753
584.935	65102.84753
585.11	65089.30881
585.285	65123.16645
585.461	65195.51789
585.636	65096.07745
585.812	65114.13421
585.987	65181.93927
586.162	65168.36654
586.338	65109.61905
586.513	65204.5736
586.688	65265.76884
586.863	65143.49846
587.039	65200.04542
587.214	65175.15217
587.389	65170.62825
587.564	65211.3671
587.74	65168.36654
587.915	65336.18051
588.09	65281.6541
588.265	65218.1621
588.44	65295.27659
588.615	65279.38428
588.791	65268.03766
588.966	65322.53977
589.141	65340.72879
589.316	65261.2317
589.491	65274.84513
589.666	65245.35697
589.841	65209.10244
590.016	65320.26691
590.191	65236.28936
590.366	65368.03277
590.541	65386.24913
590.716	65336.18051
590.891	65313.44934
591.066	65409.0351
591.241	65383.97148
591.416	65402.19749
591.591	65390.80494
591.766	65390.80494
591.941	65504.92644
592.116	65518.65057
592.29	65399.91864
592.465	65447.81104
592.64	65562.15267
592.815	65495.78057
592.99	65546.11807
593.165	65504.92644
593.339	65527.80355
593.514	65498.06677
593.689	65420.43457
593.864	65502.63971
594.038	65530.09224
594.213	65422.71498
594.388	65504.92644
594.562	65482.06707
594.737	65420.43457
594.912	65500.35315
595.086	65557.57046
595.261	65509.50044
595.436	65438.68276
595.61	65459.22533
595.785	65452.37623
595.959	65447.81104
596.134	65488.92302
596.309	65486.63753
596.483	65493.49454
596.658	65482.06707
596.832	65509.50044
597.007	65383.97148
597.181	65541.53836
597.356	65456.94212
597.53	65546.11807
597.704	65518.65057
597.879	65477.49731
598.053	65482.06707
598.228	65395.36144
598.402	65393.08311
598.576	65493.49454
598.751	65409.0351
598.925	65468.35991
599.1	65468.35991
599.274	65514.07515
599.448	65479.7821
599.622	65386.24913
599.797	65463.79227
599.971	65463.79227
600.145	65340.72879
600.32	65436.40113
600.494	65461.50871
600.668	65413.59436
600.842	65402.19749
601.016	65511.78771
601.191	65413.59436
601.365	65204.5736
601.539	65434.11967
601.713	65468.35991
601.887	65377.13958
602.061	65493.49454
602.235	65415.87426
602.409	65486.63753
602.583	65424.99557
602.758	65548.40819
602.932	65486.63753
603.106	65550.69848
603.28	65500.35315
603.454	65454.65909
603.628	65409.0351
603.802	65504.92644
603.976	65488.92302
604.149	65470.644
604.323	65424.99557
604.497	65502.63971
604.671	65420.43457
604.845	65454.65909
605.019	65493.49454
605.193	65504.92644
605.367	65418.15433
605.541	65450.09355
605.714	65395.36144
605.888	65404.47652
606.062	65475.2127
606.236	65578.19609
606.41	65361.20446
606.583	65486.63753
606.757	65509.50044
606.931	65454.65909
607.105	65488.92302
607.278	65493.49454
607.452	65539.24878
607.626	65404.47652
607.799	65488.92302
607.973	65507.21335
608.147	65447.81104
608.32	65504.92644
608.494	65459.22533
608.668	65486.63753
608.841	65386.24913
609.015	65397.63995
609.188	65450.09355
609.362	65559.86147
609.535	65472.92826
609.709	65498.06677
609.882	65461.50871
610.056	65434.11967
610.229	65463.79227
610.403	65466.076
610.576	65361.20446
610.75	65434.11967
610.923	65463.79227
611.097	65520.93855
611.27	65388.52695
611.443	65454.65909
611.617	65555.27962
611.79	65559.86147
611.963	65452.37623
612.137	65463.79227
612.31	65459.22533
612.483	65486.63753
612.657	65470.644
612.83	65527.80355
613.003	65525.51504
613.177	65486.63753
613.35	65504.92644
613.523	65463.79227
613.696	65440.96457
613.869	65578.19609
614.043	65415.87426
614.216	65463.79227
614.389	65502.63971
614.562	65424.99557
614.735	65479.7821
614.908	65488.92302
615.082	65422.71498
615.255	65468.35991
615.428	65431.83838
615.601	65509.50044
615.774	65482.06707
615.947	65436.40113
616.12	65340.72879
616.293	65377.13958
616.466	65390.80494
616.639	65409.0351
616.812	65440.96457
616.985	65358.92871
617.158	65438.68276
617.331	65456.94212
617.504	65436.40113
617.677	65514.07515
617.85	65468.35991
618.022	65482.06707
618.195	65463.79227
618.368	65399.91864
618.541	65386.24913
618.714	65466.076
618.887	65454.65909
619.059	65420.43457
619.232	65463.79227
619.405	65306.63329
619.578	65336.18051
619.751	65445.52871
619.923	65422.71498
620.096	65354.3777
620.269	65374.86262
620.441	65424.99557
620.614	65466.076
620.787	65393.08311
620.96	65406.75572
621.132	65311.17715
621.305	65283.9241
621.477	65340.72879
621.65	65427.27633
621.823	65440.96457
621.995	65336.18051
622.168	65345.27774
622.34	65347.55248
622.513	65358.92871
622.685	65354.3777
622.858	65336.18051
623.03	65395.36144
623.203	65422.71498
623.375	65374.86262
623.548	65415.87426
623.72	65347.55248
623.893	65349.82738
624.065	65372.58583
624.238	65365.7565
624.41	65466.076
624.582	65304.36161
624.755	65381.69401
624.927	65358.92871
625.1	65352.10246
625.272	65424.99557
625.444	65317.99422
625.617	65231.75655
625.789	65308.90514
625.961	65370.30921
626.133	65306.63329
626.306	65293.00575
626.478	65293.00575
626.65	65277.11462
626.822	65358.92871
626.995	65256.69523
627.167	65268.03766
627.339	65338.45457
627.511	65229.49039
627.683	65268.03766
627.855	65238.55601
628.027	65317.99422
628.2	65252.15942
628.372	65277.11462
628.544	65279.38428
628.716	65277.11462
628.888	65254.42724
629.06	65190.99103
629.232	65354.3777
629.404	65279.38428
629.576	65195.51789
629.748	65295.27659
629.92	65157.06042
630.092	65145.75838
630.264	65243.08982
630.436	65320.26691
630.608	65252.15942
630.78	65247.62429
630.952	65290.73509
631.124	65213.63194
631.295	65236.28936
631.467	65288.46459
631.639	65204.5736
631.811	65283.9241
631.983	65263.50019
632.155	65263.50019
632.326	65258.96338
632.498	65254.42724
632.67	65263.50019
632.842	65297.54759
633.014	65243.08982
633.185	65186.46482
633.357	65274.84513
633.529	65148.01846
633.7	65181.93927
633.872	65297.54759
634.044	65299.81876
634.215	65188.72784
634.387	65263.50019
634.559	65340.72879
634.73	65283.9241
634.902	65331.63292
635.074	65268.03766
635.245	65258.96338
635.417	65281.6541
635.588	65195.51789
635.76	65340.72879
635.931	65327.08601
636.103	65340.72879
636.274	65236.28936
636.446	65288.46459
636.617	65222.69292
636.789	65315.72169
636.96	65308.90514
637.132	65329.35938
637.303	65317.99422
637.474	65349.82738
637.646	65268.03766
637.817	65343.00318
637.989	65295.27659
638.16	65354.3777
638.331	65377.13958
638.503	65240.82283
638.674	65272.5758
638.845	65377.13958
639.017	65288.46459
639.188	65290.73509
639.359	65379.41671
639.53	65365.7565
639.702	65295.27659
639.873	65374.86262
640.044	65338.45457
640.215	65349.82738
640.387	65249.89177
640.558	65231.75655
640.729	65204.5736
640.9	65234.02287
641.071	65245.35697
641.242	65249.89177
641.413	65261.2317
641.585	65306.63329
641.756	65234.02287
641.927	65361.20446
642.098	65286.19426
642.269	65283.9241
642.44	65349.82738
642.611	65277.11462
642.782	65283.9241
642.953	65193.25438
643.124	65236.28936
643.295	65358.92871
643.466	65224.95858
643.637	65288.46459
643.808	65270.30665
643.979	65202.30942
644.15	65175.15217
644.32	65229.49039
644.491	65247.62429
644.662	65395.36144
644.833	65272.5758
645.004	65238.55601
645.175	65281.6541
645.346	65218.1621
645.516	65311.17715
645.687	65263.50019
645.858	65265.76884
646.029	65215.89693
646.199	65297.54759
646.37	65258.96338
646.541	65322.53977
646.712	65195.51789
646.882	65243.08982
647.053	65274.84513
647.224	65270.30665
647.394	65256.69523
647.565	65261.2317
647.736	65299.81876
647.906	65333.90663
648.077	65261.2317
648.248	65331.63292
648.418	65304.36161
648.589	65347.55248
648.759	65288.46459
648.93	65290.73509
649.1	65349.82738
649.271	65218.1621
649.441	65227.2244
649.612	65299.81876
649.782	65224.95858
649.953	65206.83793
650.123	65258.96338
650.294	65200.04542
650.464	65240.82283
650.635	64947.49663
650.805	65263.50019
650.975	65136.71966
651.146	65299.81876
651.316	65254.42724
651.487	65283.9241
651.657	65286.19426
651.827	65218.1621
651.998	65340.72879
652.168	65227.2244
652.338	65290.73509
652.508	65356.65312
652.679	65279.38428
652.849	65200.04542
653.019	65236.28936
653.189	65231.75655
653.36	65245.35697
653.53	65340.72879
653.7	65247.62429
653.87	65361.20446
654.04	65295.27659
654.211	65313.44934
654.381	65218.1621
654.551	65331.63292
654.721	65240.82283
654.891	65315.72169
655.061	65238.55601
655.231	65349.82738
655.401	65363.48039
655.571	65329.35938
655.741	65247.62429
655.911	65295.27659
656.081	65234.02287
656.251	65365.7565
656.421	65261.2317
656.591	65356.65312
656.761	65272.5758
656.931	65397.63995
657.101	65363.48039
657.271	65308.90514
657.441	65286.19426
657.611	65399.91864
657.781	65290.73509
657.951	65333.90663
658.121	65272.5758
658.291	65268.03766
658.46	65374.86262
658.63	65302.0901
658.8	65329.35938
658.97	65297.54759
659.14	65245.35697
659.309	65324.81281
659.479	65279.38428
659.649	65354.3777
659.819	65270.30665
659.988	65390.80494
660.158	65422.71498
660.328	65302.0901
660.497	65365.7565
660.667	65352.10246
660.837	65302.0901
661.006	65281.6541
661.176	65440.96457
661.346	65331.63292
661.515	65372.58583
661.685	65377.13958
661.854	65333.90663
662.024	65361.20446
662.194	65322.53977
662.363	65311.17715
662.533	65363.48039
662.702	65459.22533
662.872	65409.0351
663.041	65299.81876
663.211	65445.52871
663.38	65502.63971
663.55	65365.7565
663.719	65361.20446
663.889	65484.35221
664.058	65440.96457
664.227	65386.24913
664.397	65372.58583
664.566	65370.30921
664.735	65459.22533
664.905	65420.43457
665.074	65420.43457
665.244	65404.47652
665.413	65468.35991
665.582	65381.69401
665.751	65415.87426
665.921	65418.15433
666.09	65427.27633
666.259	65379.41671
666.428	65422.71498
666.598	65427.27633
666.767	65370.30921
666.936	65379.41671
667.105	65358.92871
667.275	65411.31464
667.444	65409.0351
667.613	65315.72169
667.782	65468.35991
667.951	65372.58583
668.12	65399.91864
668.289	65411.31464
668.458	65363.48039
668.628	65466.076
668.797	65434.11967
668.966	65450.09355
669.135	65331.63292
669.304	65402.19749
669.473	65402.19749
669.642	65429.55727
669.811	65431.83838
669.98	65383.97148
670.149	65361.20446
670.318	65477.49731
670.487	65445.52871
670.656	65390.80494
670.824	65436.40113
670.993	65486.63753
671.162	65388.52695
671.331	65374.86262
671.5	65438.68276
671.669	65459.22533
671.838	65475.2127
672.007	65409.0351
672.175	65424.99557
672.344	65436.40113
672.513	65295.27659
672.682	65470.644
672.85	65386.24913
673.019	65354.3777
673.188	65329.35938
673.357	65383.97148
673.525	65475.2127
673.694	65475.2127
673.863	65424.99557
674.032	65386.24913
674.2	65452.37623
674.369	65452.37623
674.537	65395.36144
674.706	65491.2087
674.875	65443.24655
675.043	65422.71498
675.212	65409.0351
675.381	65409.0351
675.549	65463.79227
675.718	65482.06707
675.886	65434.11967
676.055	65504.92644
676.223	65477.49731
676.392	65413.59436
676.56	65427.27633
676.729	65438.68276
676.897	65500.35315
677.066	65463.79227
677.234	65461.50871
677.403	65564.44405
677.571	65468.35991
677.739	65459.22533
677.908	65482.06707
678.076	65434.11967
678.244	65447.81104
678.413	65498.06677
678.581	65429.55727
678.75	65484.35221
678.918	65488.92302
679.086	65472.92826
679.254	65566.7356
679.423	65377.13958
679.591	65472.92826
679.759	65468.35991
679.928	65495.78057
680.096	65447.81104
680.264	65482.06707
680.432	65443.24655
680.6	65470.644
680.769	65422.71498
680.937	65523.2267
681.105	65422.71498
681.273	65420.43457
681.441	65475.2127
681.609	65368.03277
681.777	65475.2127
681.945	65440.96457
682.114	65498.06677
682.282	65450.09355
682.45	65482.06707
682.618	65509.50044
682.786	65566.7356
682.954	65461.50871
683.122	65290.73509
683.29	65388.52695
683.458	65495.78057
683.626	65491.2087
683.794	65461.50871
683.962	65580.48873
684.13	65406.75572
684.298	65520.93855
684.465	65454.65909
684.633	65509.50044
684.801	65523.2267
684.969	65498.06677
685.137	65418.15433
685.305	65518.65057
685.473	65459.22533
685.64	65518.65057
685.808	65596.54225
685.976	65390.80494
686.144	65546.11807
686.312	65377.13958
686.479	65539.24878
686.647	65530.09224
686.815	65488.92302
686.983	65507.21335
687.15	65470.644
687.318	65504.92644
687.486	65472.92826
687.653	65459.22533
687.821	65511.78771
687.989	65461.50871
688.156	65552.98896
688.324	65527.80355
688.492	65470.644
688.659	65614.90003
688.827	65443.24655
688.994	65536.95938
689.162	65518.65057
689.329	65411.31464
689.497	65539.24878
689.665	65580.48873
689.832	65468.35991
690	65450.09355
690.167	65548.40819
690.335	65509.50044
690.502	65532.3811
690.669	65468.35991
690.837	65511.78771
691.004	65420.43457
691.172	65418.15433
691.339	65402.19749
691.507	65571.31926
691.674	65536.95938
691.841	65546.11807
692.009	65585.07454
692.176	65500.35315
692.343	65546.11807
692.511	65507.21335
692.678	65514.07515
692.845	65500.35315
693.013	65555.27962
693.18	65466.076
693.347	65486.63753
693.514	65589.66108
693.682	65488.92302
693.849	65534.67015
694.016	65514.07515
694.183	65445.52871
694.35	65628.676
694.518	65541.53836
694.685	65543.82812
694.852	65539.24878
695.019	65633.26945
695.186	65502.63971
695.353	65424.99557
695.52	65479.7821
695.687	65475.2127
695.855	65493.49454
696.022	65491.2087
696.189	65536.95938
696.356	65555.27962
696.523	65605.71969
696.69	65422.71498
696.857	65633.26945
697.024	65461.50871
697.191	65552.98896
697.358	65463.79227
697.525	65445.52871
697.692	65495.78057
697.858	65571.31926
698.025	65479.7821
698.192	65484.35221
698.359	65585.07454
698.526	65495.78057
698.693	65502.63971
698.86	65546.11807
699.027	65525.51504
699.193	65591.95463
699.36	65546.11807
699.527	65557.57046
699.694	65580.48873
699.861	65580.48873
700.027	65422.71498
700.194	65468.35991
700.361	65484.35221
700.528	65475.2127
700.694	65530.09224
700.861	65566.7356
701.028	65498.06677
701.195	65498.06677
701.361	65488.92302
701.528	65536.95938
701.694	65479.7821
701.861	65605.71969
702.028	65406.75572
702.194	65466.076
702.361	65536.95938
702.528	65534.67015
702.694	65527.80355
702.861	65381.69401
703.027	65495.78057
703.194	65552.98896
703.36	65498.06677
703.527	65596.54225
703.693	65443.24655
703.86	65431.83838
704.026	65520.93855
704.193	65672.34343
704.359	65518.65057
704.526	65569.02734
