Data from Sun spf600_Subt2__0__10-01-59-398.txt Node

Date: Tue Sep 23 10:01:59 EDT 2025
User: brett
Spectrometer: USB4F03499
Trigger mode: 4
Integration Time (sec): 1.000000E-1
Scans to average: 1
Electric dark correction enabled: true
Nonlinearity correction enabled: true
Boxcar width: 0
XAxis mode: Wavelengths
Number of Pixels in Spectrum: 3648
>>>>>Begin Spectral Data<<<<<
0	24.60466
0.225	24.60466
0.449	24.60466
0.674	-51.48037
0.898	3.83901
1.123	-25.95098
1.347	-28.25958
1.572	17.5792
1.796	107.04225
2.021	35.90859
2.245	-5.33599
2.469	-48.96056
2.694	1.52486
2.918	15.28566
3.143	-83.49563
3.367	-7.63802
3.591	22.17033
3.815	111.35013
4.04	4895.51405
4.264	6802.46273
4.488	6783.43086
4.712	6649.4897
4.936	6551.8495
5.161	6595.10381
5.385	6565.95781
5.609	6673.68036
5.833	6642.36991
6.057	6832.93926
6.281	6692.2415
6.505	6706.30516
6.729	6582.886
6.953	6875.01998
7.177	6693.7314
7.401	6695.79188
7.625	6728.03639
7.849	6773.61225
8.073	6806.4572
8.297	6731.87347
8.521	6738.84284
8.744	6896.4005
8.968	6954.16639
9.192	6911.237
9.416	6922.02757
9.64	6937.03076
9.863	6894.10514
10.087	6856.74162
10.311	6870.44027
10.535	6950.95542
10.758	6912.33606
10.982	6845.2133
11.205	6960.07462
11.429	6978.74516
11.653	7162.10988
11.876	6992.29401
12.1	7073.51819
12.323	7014.83133
12.547	7151.33674
12.77	7186.45297
12.994	7209.93002
13.217	6948.87696
13.441	7225.15877
13.664	7445.9736
13.887	7087.72573
14.111	6933.8104
14.334	7165.41137
14.557	7076.89797
14.781	7374.90729
15.004	7161.2042
15.227	6887.52606
15.451	7227.55758
15.674	7242.05034
15.897	7112.94547
16.12	7128.41126
16.343	7295.50465
16.567	7224.14585
16.79	7591.42628
17.013	7257.65994
17.236	7533.38192
17.459	7141.82448
17.682	7457.36719
17.905	7522.88116
18.128	7446.51178
18.351	7564.18228
18.574	7401.69582
18.797	7613.96883
19.02	7381.07204
19.243	7734.9039
19.466	7414.11427
19.689	7442.60476
19.911	7458.93916
20.134	7696.98716
20.357	7736.40041
20.58	7762.28697
20.803	7791.63133
21.025	7733.15449
21.248	7551.60931
21.471	7841.92013
21.694	7590.66619
21.916	7638.67758
22.139	7696.76395
22.362	7627.06688
22.584	7708.84748
22.807	7886.10325
23.029	7704.55537
23.252	7687.03238
23.475	7886.84496
23.697	7865.40573
23.92	7899.58537
24.142	8027.64513
24.365	7746.94276
24.587	8057.02321
24.809	8072.65519
25.032	8035.65494
25.254	7841.38983
25.477	8134.13042
25.699	8092.46682
25.921	8261.1277
26.144	8227.7301
26.366	8213.30011
26.588	8133.1572
26.81	8170.67849
27.033	8085.73614
27.255	8143.45553
27.477	8255.60888
27.699	8385.97474
27.921	8361.35578
28.144	8165.6231
28.366	8377.5969
28.588	8425.85241
28.81	8500.08724
29.032	8504.68419
29.254	8606.05739
29.476	8309.73668
29.698	8533.38234
29.92	8437.93697
30.142	8818.97261
30.364	8627.33892
30.586	8683.6791
30.808	8888.49053
31.029	8956.9242
31.251	8797.32948
31.473	8631.31599
31.695	8997.7794
31.917	8748.53255
32.139	8629.02587
32.36	8935.14016
32.582	8952.8269
32.804	8800.38315
33.026	8865.61806
33.247	8878.96514
33.469	8897.93684
33.691	8806.60837
33.912	8995.19092
34.134	9159.80459
34.355	9140.47231
34.577	9309.07998
34.798	9202.95588
35.02	9305.57001
35.242	9017.67398
35.463	9145.57198
35.684	9274.41244
35.906	9321.79006
36.127	9440.7427
36.349	9415.67271
36.57	9841.2348
36.792	9627.00671
37.013	9788.22197
37.234	9618.54328
37.456	9657.5675
37.677	9649.62346
37.898	9872.08547
38.119	9786.33759
38.341	9797.97668
38.562	9685.45008
38.783	9772.33193
39.004	9732.22182
39.225	9728.54941
39.447	9955.683
39.668	9921.82974
39.889	10070.43887
40.11	10071.54388
40.331	10259.35832
40.552	10540.65976
40.773	10299.25679
40.994	10350.03242
41.215	10384.96666
41.436	10532.1092
41.657	10361.7019
41.878	10598.5582
42.099	11057.21812
42.32	10980.00113
42.54	10711.26346
42.761	11027.16292
42.982	11101.85672
43.203	11049.44333
43.424	11116.76144
43.645	11111.91289
43.865	11160.66218
44.086	11289.17544
44.307	11512.56421
44.527	11682.21619
44.748	11818.10997
44.969	11954.41975
45.189	12115.22545
45.41	12126.33638
45.631	12540.33937
45.851	12787.98877
46.072	12629.62165
46.292	12720.05024
46.513	12944.30718
46.733	13332.30106
46.954	13494.51895
47.174	13917.78138
47.395	14610.66098
47.615	14611.03021
47.836	15200.45285
48.056	15619.64472
48.276	15493.11207
48.497	16359.63361
48.717	17056.98555
48.937	17885.57288
49.158	19157.59431
49.378	20254.23926
49.598	21798.59915
49.818	24237.00953
50.038	26201.05901
50.259	29001.87639
50.479	32009.86241
50.699	36253.79063
50.919	41273.15717
51.139	45945.22641
51.359	51602.41246
51.579	59163.95393
51.799	63446.93366
52.02	65630.22196
52.24	65593.54983
52.46	65634.80922
52.68	65650.87036
52.899	65595.84049
53.119	65621.0496
53.339	65662.34806
53.559	65611.88013
53.779	65531.76957
53.999	65552.34858
54.219	65488.37191
54.439	65673.83032
54.658	65708.3046
54.878	65609.58821
55.098	65648.57537
55.318	65586.67894
55.538	65559.21144
55.757	65609.58821
55.977	65621.0496
56.197	65550.06131
56.416	65623.34242
56.636	65621.0496
56.855	65643.98593
57.075	65559.21144
57.295	65655.4609
57.514	65696.80858
57.734	65593.54983
57.953	65609.58821
58.173	65600.42235
58.392	65637.10313
58.612	65646.28056
58.831	65650.87036
59.051	65588.96906
59.27	65522.62794
59.489	65605.00492
59.709	65618.75696
59.928	65639.39721
60.147	65623.34242
60.367	65648.57537
60.586	65570.65311
60.805	65630.22196
61.024	65611.88013
61.244	65692.21146
61.463	65625.63541
61.682	65602.71354
61.901	65591.25936
62.12	65648.57537
62.34	65611.88013
62.559	65616.4645
62.778	65492.9371
62.997	65637.10313
63.216	65680.72187
63.435	65673.83032
63.654	65522.62794
63.873	65634.80922
64.092	65621.0496
64.311	65561.49942
64.53	65600.42235
64.749	65618.75696
64.968	65607.29647
65.187	65703.70564
65.405	65621.0496
65.624	65616.4645
65.843	65595.84049
66.062	65605.00492
66.281	65568.36442
66.499	65692.21146
66.718	65673.83032
66.937	65591.25936
67.156	65607.29647
67.374	65646.28056
67.593	65508.92079
67.812	65616.4645
68.03	65627.92859
68.249	65676.12732
68.467	65646.28056
68.686	65579.80965
68.905	65568.36442
69.123	65738.21586
69.342	65611.88013
69.56	65641.69148
69.779	65715.20442
69.997	65588.96906
70.216	65630.22196
70.434	65605.00492
70.652	65575.23102
70.871	65621.0496
71.089	65648.57537
71.307	65689.91317
71.526	65598.13133
71.744	65655.4609
71.962	65648.57537
72.181	65653.16554
72.399	65646.28056
72.617	65602.71354
72.835	65586.67894
73.054	65655.4609
73.272	65632.5155
73.49	65643.98593
73.708	65696.80858
73.926	65687.61507
74.144	65683.01942
74.362	65598.13133
74.58	65632.5155
74.798	65630.22196
75.016	65614.17222
75.234	65646.28056
75.452	65621.0496
75.67	65584.389
75.888	65657.75644
76.106	65559.21144
76.324	65692.21146
76.542	65696.80858
76.76	65616.4645
76.978	65627.92859
77.196	65660.05216
77.413	65586.67894
77.631	65563.78757
77.849	65671.53351
78.067	65582.09923
78.284	65579.80965
78.502	65637.10313
78.72	65637.10313
78.938	65692.21146
79.155	65673.83032
79.373	65627.92859
79.59	65673.83032
79.808	65637.10313
80.026	65662.34806
80.243	65646.28056
80.461	65536.34144
80.678	65520.34297
80.896	65579.80965
81.113	65609.58821
81.331	65641.69148
81.548	65435.92232
81.766	65575.23102
81.983	65598.13133
82.2	65648.57537
82.418	65703.70564
82.635	65568.36442
82.852	65472.39925
83.07	65618.75696
83.287	65630.22196
83.504	65595.84049
83.722	65522.62794
83.939	65611.88013
84.156	65515.77357
84.373	65669.23687
84.591	65627.92859
84.808	65614.17222
85.025	65575.23102
85.242	65648.57537
85.459	65607.29647
85.676	65618.75696
85.893	65685.31716
86.11	65600.42235
86.327	65602.71354
86.544	65614.17222
86.761	65643.98593
86.978	65575.23102
87.195	65609.58821
87.412	65719.80523
87.629	65664.64415
87.846	65625.63541
88.063	65540.91402
88.28	65618.75696
88.497	65627.92859
88.713	65657.75644
88.93	65683.01942
89.147	65643.98593
89.364	65584.389
89.58	65611.88013
89.797	65584.389
90.014	65614.17222
90.231	65561.49942
90.447	65639.39721
90.664	65584.389
90.881	65593.54983
91.097	65547.77422
91.314	65554.63602
91.53	65632.5155
91.747	65602.71354
91.963	65666.94042
92.18	65618.75696
92.396	65618.75696
92.613	65605.00492
92.829	65703.70564
93.046	65687.61507
93.262	65678.42451
93.479	65586.67894
93.695	65593.54983
93.911	65627.92859
94.128	65678.42451
94.344	65540.91402
94.56	65579.80965
94.777	65726.70783
94.993	65657.75644
95.209	65552.34858
95.426	65399.48958
95.642	65680.72187
95.858	65641.69148
96.074	65625.63541
96.29	65692.21146
96.506	65621.0496
96.723	65602.71354
96.939	65673.83032
97.155	65662.34806
97.371	65611.88013
97.587	65643.98593
97.803	65646.28056
98.019	65637.10313
98.235	65579.80965
98.451	65669.23687
98.667	65522.62794
98.883	65660.05216
99.099	65692.21146
99.315	65664.64415
99.53	65605.00492
99.746	65637.10313
99.962	65671.53351
100.178	65627.92859
100.394	65630.22196
100.61	65696.80858
100.825	65582.09923
101.041	65660.05216
101.257	65607.29647
101.473	65611.88013
101.688	65593.54983
101.904	65650.87036
102.12	65618.75696
102.335	65605.00492
102.551	65650.87036
102.766	65559.21144
102.982	65637.10313
103.198	65657.75644
103.413	65616.4645
103.629	65648.57537
103.844	65641.69148
104.06	65630.22196
104.275	65577.52025
104.49	65595.84049
104.706	65669.23687
104.921	65033.00974
105.137	65616.4645
105.352	65550.06131
105.567	65630.22196
105.783	65607.29647
105.998	65600.42235
106.213	65582.09923
106.429	65666.94042
106.644	65650.87036
106.859	65609.58821
107.074	65483.80742
107.29	65669.23687
107.505	65634.80922
107.72	65563.78757
107.935	65568.36442
108.15	65600.42235
108.365	65680.72187
108.58	65577.52025
108.795	65570.65311
109.01	65577.52025
109.226	65701.40643
109.441	65463.27585
109.656	65680.72187
109.871	65513.48913
110.085	65582.09923
110.3	65611.88013
110.515	65689.91317
110.73	65527.1984
110.945	65639.39721
111.16	65582.09923
111.375	65586.67894
111.59	65634.80922
111.804	65605.00492
112.019	65607.29647
112.234	65643.98593
112.449	65582.09923
112.663	65621.0496
112.878	65643.98593
113.093	65623.34242
113.308	65536.34144
113.522	65621.0496
113.737	65742.82038
113.951	65591.25936
114.166	65623.34242
114.381	65611.88013
114.595	65634.80922
114.81	65605.00492
115.024	65618.75696
115.239	65591.25936
115.453	65653.16554
115.668	65637.10313
115.882	65584.389
116.097	65637.10313
116.311	65719.80523
116.525	65611.88013
116.74	65726.70783
116.954	65575.23102
117.169	65623.34242
117.383	65605.00492
117.597	65561.49942
117.811	65621.0496
118.026	65536.34144
118.24	65572.94198
118.454	65625.63541
118.668	65627.92859
118.883	65627.92859
119.097	65609.58821
119.311	65609.58821
119.525	65611.88013
119.739	65616.4645
119.953	65637.10313
120.167	65495.21996
120.381	65646.28056
120.595	65611.88013
120.809	65653.16554
121.023	65598.13133
121.237	65637.10313
121.451	65646.28056
121.665	65641.69148
121.879	65609.58821
122.093	65545.48731
122.307	65717.50473
122.521	65657.75644
122.735	65545.48731
122.949	65641.69148
123.163	65696.80858
123.376	65579.80965
123.59	65559.21144
123.804	65616.4645
124.018	65653.16554
124.231	65664.64415
124.445	65687.61507
124.659	65543.20058
124.872	65524.91308
125.086	65621.0496
125.3	65616.4645
125.513	65598.13133
125.727	65653.16554
125.94	65600.42235
126.154	65621.0496
126.368	65669.23687
126.581	65643.98593
126.795	65653.16554
127.008	65648.57537
127.222	65680.72187
127.435	65669.23687
127.648	65666.94042
127.862	65595.84049
128.075	65660.05216
128.289	65577.52025
128.502	65671.53351
128.715	65607.29647
128.929	65722.10591
129.142	65648.57537
129.355	65618.75696
129.568	65556.92364
129.782	65595.84049
129.995	65540.91402
130.208	65641.69148
130.421	65662.34806
130.634	65655.4609
130.848	65577.52025
131.061	65540.91402
131.274	65582.09923
131.487	65680.72187
131.7	65653.16554
131.913	65579.80965
132.126	65625.63541
132.339	65529.48389
132.552	65440.47951
132.765	65547.77422
132.978	65625.63541
133.191	65648.57537
133.404	65584.389
133.617	65643.98593
133.83	65595.84049
134.043	65673.83032
134.255	65699.10741
134.468	65598.13133
134.681	65694.50993
134.894	65735.91389
135.107	65664.64415
135.319	65586.67894
135.532	65614.17222
135.745	65579.80965
135.958	65632.5155
136.17	65706.00503
136.383	65609.58821
136.596	65657.75644
136.808	65630.22196
137.021	65568.36442
137.233	65660.05216
137.446	65602.71354
137.659	65641.69148
137.871	65492.9371
138.084	65632.5155
138.296	65593.54983
138.509	65627.92859
138.721	65662.34806
138.934	65609.58821
139.146	65595.84049
139.358	65655.4609
139.571	65534.05541
139.783	65538.62764
139.996	65614.17222
140.208	65559.21144
140.42	65566.07591
140.632	65593.54983
140.845	65646.28056
141.057	65706.00503
141.269	65653.16554
141.481	65627.92859
141.694	65673.83032
141.906	65607.29647
142.118	65724.40678
142.33	65600.42235
142.542	65680.72187
142.754	65588.96906
142.967	65712.9043
143.179	65666.94042
143.391	65554.63602
143.603	65646.28056
143.815	65543.20058
144.027	65623.34242
144.239	65515.77357
144.451	65614.17222
144.663	65625.63541
144.875	65550.06131
145.086	65518.05818
145.298	65570.65311
145.51	65648.57537
145.722	65552.34858
145.934	65641.69148
146.146	65646.28056
146.358	65630.22196
146.569	65680.72187
146.781	65595.84049
146.993	65678.42451
147.205	65531.76957
147.416	65632.5155
147.628	65623.34242
147.84	65582.09923
148.051	65630.22196
148.263	65595.84049
148.475	65669.23687
148.686	65634.80922
148.898	65559.21144
149.109	65543.20058
149.321	65671.53351
149.532	65550.06131
149.744	65607.29647
149.955	65584.389
150.167	65639.39721
150.378	65625.63541
150.59	65655.4609
150.801	65694.50993
151.013	65680.72187
151.224	65543.20058
151.435	65630.22196
151.647	65543.20058
151.858	65598.13133
152.069	65630.22196
152.281	65632.5155
152.492	65602.71354
152.703	65637.10313
152.914	65502.06958
153.126	65598.13133
153.337	65602.71354
153.548	65699.10741
153.759	65593.54983
153.97	65678.42451
154.181	65662.34806
154.392	65572.94198
154.604	65689.91317
154.815	65653.16554
155.026	65586.67894
155.237	65630.22196
155.448	65522.62794
155.659	65605.00492
155.87	65611.88013
156.081	65591.25936
156.292	65660.05216
156.502	65692.21146
156.713	65588.96906
156.924	65566.07591
157.135	65609.58821
157.346	65625.63541
157.557	65588.96906
157.768	65655.4609
157.978	65696.80858
158.189	65600.42235
158.4	65662.34806
158.611	65600.42235
158.821	65550.06131
159.032	65639.39721
159.243	65570.65311
159.453	65618.75696
159.664	65618.75696
159.875	65579.80965
160.085	65655.4609
160.296	65579.80965
160.507	65639.39721
160.717	65664.64415
160.928	65577.52025
161.138	65781.98888
161.349	65637.10313
161.559	65703.70564
161.77	65634.80922
161.98	65657.75644
162.19	65584.389
162.401	65639.39721
162.611	65572.94198
162.822	65646.28056
163.032	65639.39721
163.242	65653.16554
163.453	65572.94198
163.663	65676.12732
163.873	65600.42235
164.084	65662.34806
164.294	65673.83032
164.504	65623.34242
164.714	65605.00492
164.924	65607.29647
165.135	65657.75644
165.345	65577.52025
165.555	65616.4645
165.765	65563.78757
165.975	65572.94198
166.185	65621.0496
166.395	65648.57537
166.605	65689.91317
166.815	65678.42451
167.025	65637.10313
167.235	65538.62764
167.445	65735.91389
167.655	65600.42235
167.865	65630.22196
168.075	65614.17222
168.285	65630.22196
168.495	65611.88013
168.705	65547.77422
168.915	65522.62794
169.124	65586.67894
169.334	65588.96906
169.544	65593.54983
169.754	65630.22196
169.964	65584.389
170.173	65559.21144
170.383	65605.00492
170.593	65611.88013
170.802	65568.36442
171.012	65671.53351
171.222	65634.80922
171.431	65676.12732
171.641	65641.69148
171.851	65696.80858
172.06	65655.4609
172.27	65657.75644
172.479	65591.25936
172.689	65653.16554
172.898	65600.42235
173.108	65643.98593
173.317	65577.52025
173.527	65683.01942
173.736	65687.61507
173.945	65614.17222
174.155	65575.23102
174.364	65577.52025
174.574	65614.17222
174.783	65625.63541
174.992	65563.78757
175.202	65623.34242
175.411	65566.07591
175.62	65653.16554
175.829	65666.94042
176.039	65602.71354
176.248	65572.94198
176.457	65625.63541
176.666	65540.91402
176.875	65657.75644
177.084	65586.67894
177.294	65664.64415
177.503	65678.42451
177.712	65536.34144
177.921	65660.05216
178.13	65627.92859
178.339	65715.20442
178.548	65648.57537
178.757	65616.4645
178.966	65577.52025
179.175	65591.25936
179.384	65634.80922
179.593	65611.88013
179.802	65689.91317
180.011	65616.4645
180.219	65637.10313
180.428	65607.29647
180.637	65607.29647
180.846	65577.52025
181.055	65609.58821
181.263	65634.80922
181.472	65531.76957
181.681	65664.64415
181.89	65600.42235
182.098	65534.05541
182.307	65641.69148
182.516	65602.71354
182.724	65618.75696
182.933	65582.09923
183.142	65706.00503
183.35	65602.71354
183.559	65609.58821
183.767	65625.63541
183.976	65655.4609
184.184	65669.23687
184.393	65595.84049
184.601	65655.4609
184.81	65536.34144
185.018	65660.05216
185.227	65598.13133
185.435	65678.42451
185.644	65582.09923
185.852	65724.40678
186.06	65579.80965
186.269	65579.80965
186.477	65575.23102
186.685	65623.34242
186.894	65534.05541
187.102	65618.75696
187.31	65550.06131
187.518	65623.34242
187.727	65708.3046
187.935	65685.31716
188.143	65625.63541
188.351	65593.54983
188.559	65685.31716
188.768	65547.77422
188.976	65568.36442
189.184	65584.389
189.392	65582.09923
189.6	65591.25936
189.808	65511.20487
190.016	65653.16554
190.224	65641.69148
190.432	65611.88013
190.64	65616.4645
190.848	65607.29647
191.056	65559.21144
191.264	65598.13133
191.472	65623.34242
191.679	65639.39721
191.887	65632.5155
192.095	65715.20442
192.303	65595.84049
192.511	65646.28056
192.719	65722.10591
192.926	65566.07591
193.134	65722.10591
193.342	65650.87036
193.55	65630.22196
193.757	65623.34242
193.965	65600.42235
194.173	65584.389
194.38	65689.91317
194.588	65664.64415
194.796	65643.98593
195.003	65568.36442
195.211	65664.64415
195.418	65646.28056
195.626	65712.9043
195.833	65607.29647
196.041	65563.78757
196.248	65623.34242
196.456	65566.07591
196.663	65522.62794
196.871	65653.16554
197.078	65605.00492
197.285	65630.22196
197.493	65605.00492
197.7	65486.08958
197.908	65598.13133
198.115	65639.39721
198.322	65609.58821
198.529	65680.72187
198.737	65699.10741
198.944	65605.00492
199.151	65696.80858
199.358	65662.34806
199.566	65740.51803
199.773	65531.76957
199.98	65627.92859
200.187	65657.75644
200.394	65621.0496
200.601	65499.7862
200.809	65710.60435
201.016	65598.13133
201.223	65591.25936
201.43	65706.00503
201.637	65648.57537
201.844	65653.16554
202.051	65726.70783
202.258	65602.71354
202.465	65643.98593
202.672	65715.20442
202.878	65621.0496
203.085	65648.57537
203.292	65602.71354
203.499	65572.94198
203.706	65621.0496
203.913	65618.75696
204.12	65680.72187
204.326	65662.34806
204.533	65673.83032
204.74	65563.78757
204.947	65611.88013
205.153	65623.34242
205.36	65607.29647
205.567	65712.9043
205.773	65706.00503
205.98	65584.389
206.187	65627.92859
206.393	65618.75696
206.6	65641.69148
206.806	65683.01942
207.013	65556.92364
207.22	65563.78757
207.426	65673.83032
207.633	65614.17222
207.839	65547.77422
208.046	65579.80965
208.252	65582.09923
208.458	65577.52025
208.665	65605.00492
208.871	65643.98593
209.078	65536.34144
209.284	65627.92859
209.49	65639.39721
209.697	65641.69148
209.903	65680.72187
210.109	65646.28056
210.316	65579.80965
210.522	65660.05216
210.728	65598.13133
210.934	65401.76534
211.14	65641.69148
211.347	65701.40643
211.553	65586.67894
211.759	65609.58821
211.965	65563.78757
212.171	65586.67894
212.377	65552.34858
212.583	65614.17222
212.789	65650.87036
212.996	65600.42235
213.202	65566.07591
213.408	65607.29647
213.614	65614.17222
213.82	65662.34806
214.025	65646.28056
214.231	65692.21146
214.437	65650.87036
214.643	65547.77422
214.849	65611.88013
215.055	65618.75696
215.261	65676.12732
215.467	65609.58821
215.672	65689.91317
215.878	65550.06131
216.084	65669.23687
216.29	65609.58821
216.496	65534.05541
216.701	65577.52025
216.907	65671.53351
217.113	65611.88013
217.318	65543.20058
217.524	65655.4609
217.73	65666.94042
217.935	65634.80922
218.141	65582.09923
218.346	65600.42235
218.552	65632.5155
218.758	65600.42235
218.963	65588.96906
219.169	65598.13133
219.374	65609.58821
219.58	65609.58821
219.785	65630.22196
219.991	65556.92364
220.196	65710.60435
220.401	65643.98593
220.607	65614.17222
220.812	65529.48389
221.017	65618.75696
221.223	65566.07591
221.428	65540.91402
221.633	65561.49942
221.839	65609.58821
222.044	65669.23687
222.249	65600.42235
222.454	65593.54983
222.66	65595.84049
222.865	65641.69148
223.07	65495.21996
223.275	65616.4645
223.48	65584.389
223.686	65669.23687
223.891	65699.10741
224.096	65692.21146
224.301	65508.92079
224.506	65664.64415
224.711	65570.65311
224.916	65650.87036
225.121	65643.98593
225.326	65641.69148
225.531	65669.23687
225.736	65648.57537
225.941	65678.42451
226.146	65627.92859
226.351	65598.13133
226.555	65595.84049
226.76	65591.25936
226.965	65694.50993
227.17	65637.10313
227.375	65660.05216
227.58	65643.98593
227.784	65575.23102
227.989	65733.61209
228.194	65655.4609
228.399	65584.389
228.603	65676.12732
228.808	65650.87036
229.013	65561.49942
229.217	65614.17222
229.422	65666.94042
229.627	65627.92859
229.831	65648.57537
230.036	65579.80965
230.24	65607.29647
230.445	65584.389
230.649	65607.29647
230.854	65598.13133
231.058	65637.10313
231.263	65625.63541
231.467	65593.54983
231.672	65632.5155
231.876	65614.17222
232.081	65563.78757
232.285	65586.67894
232.489	65584.389
232.694	65653.16554
232.898	65563.78757
233.102	65520.34297
233.307	65607.29647
233.511	65630.22196
233.715	65582.09923
233.919	65559.21144
234.124	65673.83032
234.328	65712.9043
234.532	65609.58821
234.736	65570.65311
234.94	65664.64415
235.145	65605.00492
235.349	65593.54983
235.553	65499.7862
235.757	65508.92079
235.961	65666.94042
236.165	65660.05216
236.369	65575.23102
236.573	65577.52025
236.777	65673.83032
236.981	65600.42235
237.185	65536.34144
237.389	65634.80922
237.593	65614.17222
237.797	65584.389
238.001	65579.80965
238.205	65595.84049
238.409	65650.87036
238.612	65655.4609
238.816	65492.9371
239.02	65618.75696
239.224	65632.5155
239.428	65582.09923
239.631	65605.00492
239.835	65588.96906
240.039	65618.75696
240.243	65568.36442
240.446	65543.20058
240.65	65669.23687
240.854	65768.15853
241.057	65593.54983
241.261	65669.23687
241.464	65689.91317
241.668	65566.07591
241.872	65655.4609
242.075	65616.4645
242.279	65605.00492
242.482	65653.16554
242.686	65643.98593
242.889	65552.34858
243.093	65655.4609
243.296	65559.21144
243.499	65616.4645
243.703	65618.75696
243.906	65678.42451
244.11	65588.96906
244.313	65623.34242
244.516	65598.13133
244.72	65559.21144
244.923	65680.72187
245.126	65524.91308
245.33	65595.84049
245.533	65671.53351
245.736	65598.13133
245.939	65634.80922
246.142	65602.71354
246.346	65650.87036
246.549	65696.80858
246.752	65655.4609
246.955	65632.5155
247.158	65591.25936
247.361	65637.10313
247.564	65577.52025
247.767	65536.34144
247.971	65618.75696
248.174	65586.67894
248.377	65637.10313
248.58	65696.80858
248.783	65662.34806
248.985	65623.34242
249.188	65637.10313
249.391	65588.96906
249.594	65618.75696
249.797	65666.94042
250	65538.62764
250.203	65634.80922
250.406	65641.69148
250.609	65669.23687
250.811	65646.28056
251.014	65646.28056
251.217	65678.42451
251.42	65662.34806
251.622	65495.21996
251.825	65559.21144
252.028	65646.28056
252.231	65650.87036
252.433	65664.64415
252.636	65556.92364
252.838	65584.389
253.041	65621.0496
253.244	65570.65311
253.446	65520.34297
253.649	65607.29647
253.851	65563.78757
254.054	65641.69148
254.256	65554.63602
254.459	65646.28056
254.661	65588.96906
254.864	65666.94042
255.066	65463.27585
255.269	65625.63541
255.471	65591.25936
255.673	65575.23102
255.876	65646.28056
256.078	65591.25936
256.281	65602.71354
256.483	65618.75696
256.685	65673.83032
256.887	65609.58821
257.09	65600.42235
257.292	65664.64415
257.494	65575.23102
257.696	65634.80922
257.899	65664.64415
258.101	65522.62794
258.303	65595.84049
258.505	65694.50993
258.707	65627.92859
258.909	65655.4609
259.111	65715.20442
259.314	65595.84049
259.516	65646.28056
259.718	65559.21144
259.92	65605.00492
260.122	65632.5155
260.324	65646.28056
260.526	65538.62764
260.728	65602.71354
260.93	65584.389
261.131	65701.40643
261.333	65660.05216
261.535	65623.34242
261.737	65650.87036
261.939	65577.52025
262.141	65614.17222
262.343	65570.65311
262.544	65588.96906
262.746	65588.96906
262.948	65671.53351
263.15	65621.0496
263.352	65550.06131
263.553	65618.75696
263.755	65671.53351
263.957	65545.48731
264.158	65582.09923
264.36	65605.00492
264.562	65568.36442
264.763	65655.4609
264.965	65586.67894
265.166	65639.39721
265.368	65543.20058
265.569	65648.57537
265.771	65643.98593
265.972	65579.80965
266.174	65648.57537
266.375	65634.80922
266.577	65621.0496
266.778	65588.96906
266.98	65618.75696
267.181	65669.23687
267.383	65689.91317
267.584	65540.91402
267.785	65625.63541
267.987	65646.28056
268.188	65694.50993
268.389	65579.80965
268.591	65689.91317
268.792	65687.61507
268.993	65591.25936
269.194	65646.28056
269.396	65554.63602
269.597	65607.29647
269.798	65657.75644
269.999	65605.00492
270.2	65687.61507
270.401	65550.06131
270.603	65648.57537
270.804	65664.64415
271.005	65666.94042
271.206	65618.75696
271.407	65591.25936
271.608	65545.48731
271.809	65623.34242
272.01	65609.58821
272.211	65637.10313
272.412	65575.23102
272.613	65568.36442
272.814	65671.53351
273.015	65643.98593
273.216	65664.64415
273.416	65639.39721
273.617	65563.78757
273.818	65588.96906
274.019	65632.5155
274.22	65572.94198
274.421	65602.71354
274.621	65639.39721
274.822	65605.00492
275.023	65609.58821
275.224	65616.4645
275.424	65699.10741
275.625	65731.31048
275.826	65625.63541
276.026	65669.23687
276.227	65632.5155
276.428	65584.389
276.628	65577.52025
276.829	65579.80965
277.029	65632.5155
277.23	65609.58821
277.43	65586.67894
277.631	65543.20058
277.831	65701.40643
278.032	65678.42451
278.232	65632.5155
278.433	65648.57537
278.633	65540.91402
278.834	65650.87036
279.034	65579.80965
279.234	65550.06131
279.435	65621.0496
279.635	65600.42235
279.835	65627.92859
280.036	65538.62764
280.236	65712.9043
280.436	65648.57537
280.637	65621.0496
280.837	65554.63602
281.037	65625.63541
281.237	65625.63541
281.438	65639.39721
281.638	65648.57537
281.838	65643.98593
282.038	65643.98593
282.238	65621.0496
282.438	65630.22196
282.638	65627.92859
282.838	65646.28056
283.038	65600.42235
283.239	65641.69148
283.439	65623.34242
283.639	65527.1984
283.839	65657.75644
284.039	65598.13133
284.238	65623.34242
284.438	65579.80965
284.638	65673.83032
284.838	65650.87036
285.038	65653.16554
285.238	65676.12732
285.438	65616.4645
285.638	65614.17222
285.838	65618.75696
286.037	65584.389
286.237	65657.75644
286.437	65664.64415
286.637	65641.69148
286.836	65639.39721
287.036	65689.91317
287.236	65586.67894
287.436	65673.83032
287.635	65609.58821
287.835	65618.75696
288.034	65623.34242
288.234	65529.48389
288.434	65595.84049
288.633	65632.5155
288.833	65666.94042
289.032	65722.10591
289.232	65609.58821
289.431	65609.58821
289.631	65646.28056
289.83	65540.91402
290.03	65669.23687
290.229	65657.75644
290.429	65729.00906
290.628	65559.21144
290.828	65692.21146
291.027	65715.20442
291.226	65641.69148
291.426	65602.71354
291.625	65486.08958
291.824	65637.10313
292.024	65637.10313
292.223	65669.23687
292.422	65627.92859
292.621	65646.28056
292.821	65593.54983
293.02	65632.5155
293.219	65561.49942
293.418	65666.94042
293.617	65572.94198
293.817	65660.05216
294.016	65531.76957
294.215	65563.78757
294.414	65706.00503
294.613	65641.69148
294.812	65627.92859
295.011	65655.4609
295.21	65605.00492
295.409	65694.50993
295.608	65740.51803
295.807	65660.05216
296.006	65595.84049
296.205	65630.22196
296.404	65495.21996
296.603	65648.57537
296.802	65534.05541
297.001	65657.75644
297.2	65655.4609
297.398	65673.83032
297.597	65561.49942
297.796	65699.10741
297.995	65683.01942
298.194	65579.80965
298.392	65643.98593
298.591	65637.10313
298.79	65680.72187
298.988	65648.57537
299.187	65643.98593
299.386	65614.17222
299.585	65632.5155
299.783	65616.4645
299.982	65552.34858
300.18	65650.87036
300.379	65639.39721
300.578	65641.69148
300.776	65699.10741
300.975	65605.00492
301.173	65547.77422
301.372	65632.5155
301.57	65650.87036
301.769	65655.4609
301.967	65584.389
302.166	65632.5155
302.364	65676.12732
302.562	65627.92859
302.761	65582.09923
302.959	65637.10313
303.157	65591.25936
303.356	65664.64415
303.554	65572.94198
303.752	65632.5155
303.951	65598.13133
304.149	65511.20487
304.347	65605.00492
304.546	65575.23102
304.744	65611.88013
304.942	65595.84049
305.14	65664.64415
305.338	65689.91317
305.536	65641.69148
305.735	65643.98593
305.933	65650.87036
306.131	65660.05216
306.329	65572.94198
306.527	65689.91317
306.725	65637.10313
306.923	65584.389
307.121	65527.1984
307.319	65662.34806
307.517	65664.64415
307.715	65614.17222
307.913	65504.35314
308.111	65591.25936
308.309	65607.29647
308.507	65639.39721
308.705	65627.92859
308.903	65683.01942
309.1	65563.78757
309.298	65568.36442
309.496	65609.58821
309.694	65646.28056
309.892	65671.53351
310.089	65678.42451
310.287	65627.92859
310.485	65657.75644
310.683	65614.17222
310.88	65632.5155
311.078	65639.39721
311.276	65575.23102
311.473	65625.63541
311.671	65616.4645
311.869	65572.94198
312.066	65623.34242
312.264	65621.0496
312.461	65543.20058
312.659	65563.78757
312.856	65575.23102
313.054	65653.16554
313.251	65648.57537
313.449	65561.49942
313.646	65630.22196
313.844	65673.83032
314.041	65630.22196
314.239	65559.21144
314.436	65550.06131
314.634	65518.05818
314.831	65575.23102
315.028	65696.80858
315.226	65630.22196
315.423	65559.21144
315.62	65664.64415
315.817	65611.88013
316.015	65504.35314
316.212	65660.05216
316.409	65579.80965
316.606	65595.84049
316.804	65641.69148
317.001	65676.12732
317.198	65577.52025
317.395	65577.52025
317.592	65577.52025
317.789	65627.92859
317.987	65605.00492
318.184	65657.75644
318.381	65694.50993
318.578	65579.80965
318.775	65689.91317
318.972	65685.31716
319.169	65683.01942
319.366	65575.23102
319.563	65611.88013
319.76	65650.87036
319.957	65641.69148
320.154	65655.4609
320.351	65572.94198
320.547	65595.84049
320.744	65634.80922
320.941	65513.48913
321.138	65627.92859
321.335	65614.17222
321.532	65662.34806
321.728	65582.09923
321.925	65680.72187
322.122	65502.06958
322.319	65729.00906
322.515	65572.94198
322.712	65586.67894
322.909	65699.10741
323.105	65703.70564
323.302	65563.78757
323.499	65543.20058
323.695	65591.25936
323.892	65621.0496
324.089	65577.52025
324.285	65643.98593
324.482	65653.16554
324.678	65703.70564
324.875	65657.75644
325.071	65607.29647
325.268	65611.88013
325.464	65637.10313
325.661	65616.4645
325.857	65630.22196
326.054	65664.64415
326.25	65591.25936
326.446	65588.96906
326.643	65609.58821
326.839	65632.5155
327.035	65712.9043
327.232	65563.78757
327.428	65708.3046
327.624	65701.40643
327.821	65618.75696
328.017	65678.42451
328.213	65655.4609
328.409	65618.75696
328.606	65598.13133
328.802	65600.42235
328.998	65634.80922
329.194	65696.80858
329.39	65575.23102
329.586	65618.75696
329.783	65579.80965
329.979	65607.29647
330.175	65637.10313
330.371	65618.75696
330.567	65634.80922
330.763	65607.29647
330.959	65671.53351
331.155	65643.98593
331.351	65653.16554
331.547	65588.96906
331.743	65729.00906
331.939	65625.63541
332.135	65653.16554
332.33	65552.34858
332.526	65616.4645
332.722	65600.42235
332.918	65568.36442
333.114	65671.53351
333.31	65515.77357
333.506	65543.20058
333.701	65621.0496
333.897	65731.31048
334.093	65577.52025
334.289	65683.01942
334.484	65518.05818
334.68	65534.05541
334.876	65561.49942
335.071	65627.92859
335.267	65556.92364
335.463	65639.39721
335.658	65637.10313
335.854	65747.42564
336.049	65623.34242
336.245	65653.16554
336.441	65648.57537
336.636	65600.42235
336.832	65582.09923
337.027	65499.7862
337.223	65687.61507
337.418	65545.48731
337.613	65678.42451
337.809	65595.84049
338.004	65671.53351
338.2	65614.17222
338.395	65664.64415
338.591	65570.65311
338.786	65678.42451
338.981	65673.83032
339.177	65683.01942
339.372	65609.58821
339.567	65550.06131
339.762	65582.09923
339.958	65749.72855
340.153	65708.3046
340.348	65080.27689
340.543	65630.22196
340.739	65673.83032
340.934	65643.98593
341.129	65591.25936
341.324	65591.25936
341.519	65699.10741
341.714	65763.54991
341.909	65678.42451
342.104	65618.75696
342.299	65627.92859
342.495	65650.87036
342.69	65669.23687
342.885	65655.4609
343.08	65369.92025
343.275	65536.34144
343.469	65639.39721
343.664	65584.389
343.859	65627.92859
344.054	65689.91317
344.249	65671.53351
344.444	65616.4645
344.639	65650.87036
344.834	65676.12732
345.029	65623.34242
345.223	65598.13133
345.418	65678.42451
345.613	65609.58821
345.808	65627.92859
346.003	65632.5155
346.197	65627.92859
346.392	65611.88013
346.587	65515.77357
346.781	65641.69148
346.976	65600.42235
347.171	65545.48731
347.365	65650.87036
347.56	65648.57537
347.755	65570.65311
347.949	65646.28056
348.144	65676.12732
348.338	65614.17222
348.533	65609.58821
348.727	65660.05216
348.922	65577.52025
349.116	65692.21146
349.311	65621.0496
349.505	65692.21146
349.7	65676.12732
349.894	65664.64415
350.089	65600.42235
350.283	65634.80922
350.477	65618.75696
350.672	65637.10313
350.866	65559.21144
351.06	65614.17222
351.255	65618.75696
351.449	65623.34242
351.643	65623.34242
351.837	65579.80965
352.032	65719.80523
352.226	65669.23687
352.42	65673.83032
352.614	65556.92364
352.809	65660.05216
353.003	65616.4645
353.197	65602.71354
353.391	65639.39721
353.585	65605.00492
353.779	65701.40643
353.973	65556.92364
354.167	65593.54983
354.361	65680.72187
354.555	65568.36442
354.749	65637.10313
354.943	65660.05216
355.137	65595.84049
355.331	65643.98593
355.525	65657.75644
355.719	65595.84049
355.913	65634.80922
356.107	65607.29647
356.301	65637.10313
356.495	65632.5155
356.689	65623.34242
356.883	65595.84049
357.076	65692.21146
357.27	65561.49942
357.464	65657.75644
357.658	65559.21144
357.852	65630.22196
358.045	65598.13133
358.239	65671.53351
358.433	65646.28056
358.626	65657.75644
358.82	65630.22196
359.014	65609.58821
359.207	65618.75696
359.401	65710.60435
359.595	65598.13133
359.788	65650.87036
359.982	65623.34242
360.175	65588.96906
360.369	65646.28056
360.563	65618.75696
360.756	65630.22196
360.95	65607.29647
361.143	65717.50473
361.336	65768.15853
361.53	65673.83032
361.723	65660.05216
361.917	65602.71354
362.11	65662.34806
362.304	65637.10313
362.497	65627.92859
362.69	65502.06958
362.884	65611.88013
363.077	65650.87036
363.27	65643.98593
363.464	65618.75696
363.657	65660.05216
363.85	65577.52025
364.043	65646.28056
364.237	65618.75696
364.43	65591.25936
364.623	65586.67894
364.816	65676.12732
365.009	65566.07591
365.202	65650.87036
365.396	65550.06131
365.589	65611.88013
365.782	65611.88013
365.975	65692.21146
366.168	65582.09923
366.361	65545.48731
366.554	65627.92859
366.747	65660.05216
366.94	65593.54983
367.133	65632.5155
367.326	65643.98593
367.519	65646.28056
367.712	65754.33492
367.905	65641.69148
368.098	65666.94042
368.291	65524.91308
368.484	65627.92859
368.676	65598.13133
368.869	65699.10741
369.062	65639.39721
369.255	65623.34242
369.448	65586.67894
369.64	65611.88013
369.833	65650.87036
370.026	65577.52025
370.219	65694.50993
370.411	65522.62794
370.604	65708.3046
370.797	65611.88013
370.989	65584.389
371.182	65701.40643
371.375	65572.94198
371.567	65602.71354
371.76	65634.80922
371.952	65703.70564
372.145	65607.29647
372.338	65600.42235
372.53	65609.58821
372.723	65687.61507
372.915	65634.80922
373.108	65662.34806
373.3	65595.84049
373.493	65588.96906
373.685	65586.67894
373.877	65680.72187
374.07	65570.65311
374.262	65561.49942
374.455	65671.53351
374.647	65729.00906
374.839	65563.78757
375.032	65618.75696
375.224	65618.75696
375.416	65678.42451
375.609	65181.79957
375.801	65625.63541
375.993	65671.53351
376.185	65683.01942
376.378	65634.80922
376.57	65614.17222
376.762	65609.58821
376.954	65595.84049
377.146	65582.09923
377.338	65673.83032
377.53	65664.64415
377.723	65579.80965
377.915	65669.23687
378.107	65627.92859
378.299	65660.05216
378.491	65655.4609
378.683	65609.58821
378.875	65650.87036
379.067	65561.49942
379.259	65588.96906
379.451	65637.10313
379.643	65572.94198
379.835	65602.71354
380.027	65556.92364
380.219	65669.23687
380.41	65623.34242
380.602	65616.4645
380.794	65715.20442
380.986	65660.05216
381.178	65630.22196
381.37	65637.10313
381.561	65621.0496
381.753	65538.62764
381.945	65552.34858
382.137	65618.75696
382.328	65648.57537
382.52	65660.05216
382.712	65653.16554
382.903	65556.92364
383.095	65639.39721
383.287	65685.31716
383.478	65598.13133
383.67	65657.75644
383.862	65616.4645
384.053	65609.58821
384.245	65655.4609
384.436	65586.67894
384.628	65614.17222
384.819	65641.69148
385.011	65582.09923
385.202	65634.80922
385.394	65655.4609
385.585	65529.48389
385.777	65650.87036
385.968	65692.21146
386.159	65627.92859
386.351	65621.0496
386.542	65593.54983
386.734	65545.48731
386.925	65646.28056
387.116	65605.00492
387.308	65609.58821
387.499	65671.53351
387.69	65586.67894
387.881	65545.48731
388.073	65621.0496
388.264	65618.75696
388.455	65706.00503
388.646	65572.94198
388.837	65591.25936
389.029	65614.17222
389.22	65639.39721
389.411	65660.05216
389.602	65616.4645
389.793	65650.87036
389.984	65630.22196
390.175	65600.42235
390.366	65586.67894
390.557	65683.01942
390.748	65623.34242
390.939	65699.10741
391.13	65646.28056
391.321	65609.58821
391.512	65641.69148
391.703	65627.92859
391.894	65655.4609
392.085	65678.42451
392.276	65669.23687
392.467	65683.01942
392.658	65664.64415
392.849	65618.75696
393.039	65648.57537
393.23	65632.5155
393.421	65607.29647
393.612	65623.34242
393.803	65630.22196
393.993	65529.48389
394.184	65593.54983
394.375	65680.72187
394.566	65618.75696
394.756	65607.29647
394.947	65570.65311
395.138	65653.16554
395.328	65556.92364
395.519	65577.52025
395.709	65683.01942
395.9	65524.91308
396.091	65653.16554
396.281	65655.4609
396.472	65648.57537
396.662	65673.83032
396.853	65664.64415
397.043	65646.28056
397.234	65650.87036
397.424	65605.00492
397.615	65605.00492
397.805	65614.17222
397.996	65703.70564
398.186	65568.36442
398.376	65550.06131
398.567	65662.34806
398.757	65632.5155
398.947	65763.54991
399.138	65579.80965
399.328	65568.36442
399.518	65685.31716
399.709	65715.20442
399.899	65627.92859
400.089	65664.64415
400.279	65618.75696
400.47	65625.63541
400.66	65623.34242
400.85	65552.34858
401.04	65588.96906
401.23	65563.78757
401.421	65602.71354
401.611	65646.28056
401.801	65586.67894
401.991	65618.75696
402.181	65637.10313
402.371	65605.00492
402.561	65556.92364
402.751	65639.39721
402.941	65591.25936
403.131	65550.06131
403.321	65660.05216
403.511	65609.58821
403.701	65579.80965
403.891	65618.75696
404.081	65616.4645
404.271	65666.94042
404.461	65547.77422
404.651	65676.12732
404.84	65598.13133
405.03	65588.96906
405.22	65664.64415
405.41	65653.16554
405.6	65566.07591
405.789	65570.65311
405.979	65554.63602
406.169	65694.50993
406.359	65627.92859
406.548	65678.42451
406.738	65678.42451
406.928	65552.34858
407.118	65586.67894
407.307	65572.94198
407.497	65621.0496
407.686	65563.78757
407.876	65671.53351
408.066	65650.87036
408.255	65660.05216
408.445	65653.16554
408.634	65579.80965
408.824	65600.42235
409.013	65643.98593
409.203	65566.07591
409.392	65600.42235
409.582	65605.00492
409.771	65699.10741
409.961	65657.75644
410.15	65586.67894
410.34	65598.13133
410.529	65673.83032
410.718	65614.17222
410.908	65486.08958
411.097	65673.83032
411.286	65657.75644
411.476	65687.61507
411.665	65648.57537
411.854	65639.39721
412.044	65683.01942
412.233	65598.13133
412.422	65598.13133
412.611	65616.4645
412.8	65575.23102
412.99	65662.34806
413.179	65582.09923
413.368	65655.4609
413.557	65680.72187
413.746	65632.5155
413.935	65655.4609
414.124	65701.40643
414.313	65566.07591
414.503	65600.42235
414.692	65657.75644
414.881	65545.48731
415.07	65561.49942
415.259	65634.80922
415.448	65559.21144
415.637	65616.4645
415.826	65598.13133
416.015	65689.91317
416.203	65634.80922
416.392	65584.389
416.581	65646.28056
416.77	65605.00492
416.959	65593.54983
417.148	65653.16554
417.337	65664.64415
417.525	65609.58821
417.714	65591.25936
417.903	65669.23687
418.092	65664.64415
418.281	65598.13133
418.469	65607.29647
418.658	65611.88013
418.847	65641.69148
419.035	65676.12732
419.224	65689.91317
419.413	65666.94042
419.601	65609.58821
419.79	65699.10741
419.979	65634.80922
420.167	65669.23687
420.356	65632.5155
420.544	65595.84049
420.733	65664.64415
420.921	65643.98593
421.11	65595.84049
421.299	65582.09923
421.487	65625.63541
421.675	65621.0496
421.864	65630.22196
422.052	65648.57537
422.241	65529.48389
422.429	65641.69148
422.618	65632.5155
422.806	65609.58821
422.994	65641.69148
423.183	65586.67894
423.371	65641.69148
423.559	65600.42235
423.748	65572.94198
423.936	65646.28056
424.124	65731.31048
424.312	65666.94042
424.501	65609.58821
424.689	65632.5155
424.877	65630.22196
425.065	65627.92859
425.254	65646.28056
425.442	65483.80742
425.63	65552.34858
425.818	65543.20058
426.006	65632.5155
426.194	65538.62764
426.382	65556.92364
426.57	65588.96906
426.758	65605.00492
426.946	65641.69148
427.134	65579.80965
427.323	65657.75644
427.51	65627.92859
427.698	65614.17222
427.886	65584.389
428.074	65547.77422
428.262	65729.00906
428.45	65618.75696
428.638	65611.88013
428.826	65586.67894
429.014	65660.05216
429.202	65733.61209
429.39	65696.80858
429.577	65556.92364
429.765	65559.21144
429.953	65554.63602
430.141	65630.22196
430.329	65586.67894
430.516	65655.4609
430.704	65495.21996
430.892	65643.98593
431.079	65717.50473
431.267	65559.21144
431.455	65694.50993
431.643	65547.77422
431.83	65595.84049
432.018	65584.389
432.205	65643.98593
432.393	65692.21146
432.581	65627.92859
432.768	65559.21144
432.956	65563.78757
433.143	65605.00492
433.331	65577.52025
433.518	65643.98593
433.706	65625.63541
433.893	65518.05818
434.081	65650.87036
434.268	65534.05541
434.456	65666.94042
434.643	65655.4609
434.83	65568.36442
435.018	65568.36442
435.205	65650.87036
435.392	65650.87036
435.58	65724.40678
435.767	65566.07591
435.954	65621.0496
436.142	65559.21144
436.329	65660.05216
436.516	65641.69148
436.703	65584.389
436.891	65545.48731
437.078	65570.65311
437.265	65566.07591
437.452	65575.23102
437.639	65609.58821
437.827	65591.25936
438.014	65572.94198
438.201	65625.63541
438.388	65568.36442
438.575	65618.75696
438.762	65621.0496
438.949	65634.80922
439.136	65579.80965
439.323	65527.1984
439.51	65627.92859
439.697	65550.06131
439.884	65554.63602
440.071	65579.80965
440.258	65552.34858
440.445	65563.78757
440.632	65369.92025
440.819	65572.94198
441.006	65502.06958
441.193	65586.67894
441.38	65550.06131
441.566	65611.88013
441.753	65621.0496
441.94	65554.63602
442.127	65618.75696
442.314	65538.62764
442.5	65515.77357
442.687	65531.76957
442.874	65559.21144
443.061	65566.07591
443.247	65550.06131
443.434	65460.99544
443.621	65627.92859
443.807	65572.94198
443.994	65449.59597
444.181	65586.67894
444.367	65616.4645
444.554	65531.76957
444.74	65556.92364
444.927	65586.67894
445.114	65529.48389
445.3	65404.04127
445.487	65481.52544
445.673	65497.50299
445.86	65527.1984
446.046	65552.34858
446.233	65515.77357
446.419	65547.77422
446.605	65442.75836
446.792	65447.31659
446.978	65586.67894
447.165	65522.62794
447.351	65547.77422
447.537	65561.49942
447.724	65570.65311
447.91	65456.43513
448.096	65481.52544
448.283	65417.70045
448.469	65520.34297
448.655	65504.35314
448.841	65451.87551
449.028	65490.65442
449.214	65476.962
449.4	65454.15524
449.586	65474.68054
449.773	65447.31659
449.959	65474.68054
450.145	65360.82778
450.331	65490.65442
450.517	65520.34297
450.703	65399.48958
450.889	65492.9371
451.075	65438.20083
451.261	65363.10064
451.447	65356.28256
451.633	65435.92232
451.819	65424.53236
452.005	65354.01021
452.191	65422.25488
452.377	65404.04127
452.563	65381.28966
452.749	65385.83861
452.935	65360.82778
453.121	65322.21497
453.307	65351.73802
453.493	65294.98811
453.679	65335.83746
453.865	65306.32971
454.05	65279.11688
454.236	65324.48497
454.422	65390.38825
454.608	65347.19416
454.794	65367.64688
454.979	65376.74138
455.165	65344.92248
455.351	65285.91784
455.537	65290.45264
455.722	65215.71304
455.908	65297.2561
456.094	65233.81525
456.279	65213.451
456.465	65179.53997
456.65	65274.58374
456.836	65242.8703
457.022	65231.5519
457.207	65247.39881
457.393	65199.88219
457.578	65251.92798
457.764	65154.69508
457.949	65227.02569
458.135	65165.98579
458.32	65301.79257
458.506	65254.19281
458.691	65217.97524
458.877	65197.62129
459.062	65263.25379
459.248	65270.05126
459.433	65145.66541
459.618	65123.10249
459.804	65220.23761
459.989	65127.61379
460.174	65123.10249
460.36	65150.17993
460.545	65163.72732
460.73	65179.53997
460.915	65168.24441
461.101	65177.28054
461.286	65145.66541
461.471	65163.72732
461.656	65276.85023
461.842	65123.10249
462.027	65152.43742
462.212	65123.10249
462.397	65105.06366
462.582	65136.63832
462.767	65035.25899
462.952	65231.5519
463.138	65116.33673
463.323	65039.75795
463.508	65136.63832
463.693	65096.04807
463.878	65127.61379
464.063	65037.50839
464.248	65073.52019
464.433	65073.52019
464.618	65073.52019
464.803	65069.01651
464.988	65071.26827
465.173	65003.78372
465.357	65044.25754
465.542	65048.75776
465.727	64952.14026
465.912	65001.53665
466.097	65057.76008
466.282	65057.76008
466.467	65001.53665
466.651	64956.62776
466.836	64956.62776
467.021	65114.0818
467.206	65008.27832
467.391	65066.76491
467.575	65028.51171
467.76	65019.51754
467.945	64934.19637
468.129	64965.60461
468.314	64927.46993
468.499	65044.25754
468.683	64916.26223
468.868	64997.04298
469.053	64985.81152
469.237	64970.09396
469.422	64916.26223
469.606	64972.33886
469.791	65035.25899
469.975	64954.38394
470.16	64981.32002
470.344	64945.41015
470.529	65017.26938
470.713	64849.09541
470.898	65010.52585
471.082	64972.33886
471.267	65019.51754
471.451	65003.78372
471.636	65120.84708
471.82	65010.52585
472.004	64880.42307
472.189	64999.28974
472.373	65073.52019
472.557	65055.50926
472.742	65042.00767
472.926	65051.0081
473.11	65062.26218
473.295	64967.84921
473.479	64976.82913
473.663	64985.81152
473.847	65048.75776
474.031	65039.75795
474.216	65035.25899
474.4	65060.01105
474.584	65053.2586
474.768	65015.02138
474.952	64949.89674
475.136	64947.65337
475.32	65080.27689
475.505	64967.84921
475.689	64914.02115
475.873	64988.0575
476.057	64979.0745
476.241	65026.26294
476.425	64952.14026
476.609	64916.26223
476.793	64992.54993
476.977	65062.26218
477.161	64956.62776
477.345	64938.68142
477.529	65055.50926
477.713	64900.57784
477.896	65037.50839
478.08	64882.66189
478.264	64949.89674
478.448	64974.58392
478.632	64905.05834
478.816	65114.0818
478.999	64920.74485
479.183	65003.78372
479.367	64972.33886
479.551	64808.85995
479.735	64911.78022
479.918	64947.65337
480.102	64880.42307
480.286	64918.50347
480.469	64985.81152
480.653	64882.66189
480.837	64898.33782
481.02	64925.22808
481.204	64884.90085
481.388	64855.80601
481.571	64757.51759
481.755	64893.85822
481.938	64884.90085
482.122	64920.74485
482.305	64824.50136
482.489	64741.90701
482.673	64786.52764
482.856	64860.28049
483.04	64853.56899
483.223	64844.62243
483.406	64864.75557
483.59	64860.28049
483.773	64804.39231
483.957	64884.90085
484.14	64775.367
484.323	64739.67751
484.507	64782.06294
484.69	64815.56252
484.874	64887.13997
485.057	64833.44257
485.24	64788.76021
485.423	64925.22808
485.607	64766.44112
485.79	64824.50136
485.973	64779.83081
486.156	64715.16258
486.34	64730.76096
486.523	64712.93481
486.706	64773.13531
486.889	64844.62243
487.072	64739.67751
487.256	64719.61853
487.439	64779.83081
487.622	64721.84673
487.805	64775.367
487.988	64746.36645
488.171	64715.16258
488.354	64704.0252
488.537	64768.67237
488.72	64721.84673
488.903	64697.34451
489.086	64750.82647
489.269	64710.70719
489.452	64706.25239
489.635	64655.06337
489.818	64546.25802
490.001	64784.29522
490.184	64744.13666
490.367	64741.90701
490.55	64646.16863
490.732	64539.60735
490.915	64683.98699
491.098	64646.16863
491.281	64770.90377
491.464	64697.34451
491.647	64724.07507
491.829	64730.76096
492.012	64639.49907
492.195	64586.18827
492.378	64675.08485
492.56	64530.74172
492.743	64552.90994
492.926	64524.09394
493.108	64663.96038
493.291	64643.9453
493.474	64506.37257
493.656	64521.87829
493.839	64466.53147
494.022	64532.95792
494.204	64462.1074
494.387	64488.65997
494.569	64626.16377
494.752	64495.30117
494.934	64519.66277
495.117	64506.37257
495.299	64544.04099
495.482	64475.38124
495.664	64428.94407
495.847	64510.80209
496.029	64550.69249
496.212	64298.79216
496.394	64521.87829
496.576	64475.38124
496.759	64568.43593
496.941	64391.39546
497.123	64237.18414
497.306	64544.04099
497.488	64457.68387
497.67	64526.30973
497.853	64519.66277
498.035	64393.60313
498.217	64327.43037
498.4	64398.01888
498.582	64548.47519
498.764	64473.16859
498.946	64402.43516
499.128	64415.68721
499.311	64444.41652
499.493	64537.39073
499.675	64404.6435
499.857	64367.11978
500.039	64329.63422
500.221	64367.11978
500.403	64347.26975
500.585	64245.97912
500.767	64307.60158
500.949	64347.26975
501.132	64371.53235
501.314	64404.6435
501.496	64263.57522
501.678	64477.59402
501.859	64334.04232
502.041	64325.22665
502.223	64325.22665
502.405	64358.29623
502.587	64261.37526
502.769	64285.58193
502.951	64283.38068
503.133	64312.00706
503.315	64367.11978
503.497	64340.65545
503.678	64331.83821
503.86	64420.10563
504.042	64215.20562
504.224	64245.97912
504.406	64305.39903
504.587	64360.50192
504.769	64314.21
504.951	64289.98483
505.132	64398.01888
505.314	64331.83821
505.496	64294.38823
505.678	64360.50192
505.859	64342.86008
506.041	64294.38823
506.222	64309.80425
506.404	64305.39903
506.586	64318.61627
506.767	64254.77615
506.949	64362.70774
507.13	64312.00706
507.312	64320.8196
507.493	64180.06638
507.675	64296.59013
507.856	64294.38823
508.038	64384.77323
508.219	64362.70774
508.401	64360.50192
508.582	64265.77532
508.764	64303.19661
508.945	64270.17588
509.126	64358.29623
509.308	64340.65545
509.489	64325.22665
509.671	64382.56608
509.852	64289.98483
510.033	64382.56608
510.214	64356.09067
510.396	64395.81094
510.577	64462.1074
510.758	64278.97857
510.94	64289.98483
511.121	64325.22665
511.302	64327.43037
511.483	64362.70774
511.664	64298.79216
511.846	64411.26933
512.027	64329.63422
512.208	64393.60313
512.389	64380.35907
512.57	64296.59013
512.751	64334.04232
512.932	64316.41307
513.113	64226.19329
513.294	64349.47479
513.476	64336.24656
513.657	64369.326
513.838	64444.41652
514.019	64305.39903
514.2	64384.77323
514.381	64329.63422
514.561	64309.80425
514.742	64406.85198
514.923	64338.45094
515.104	64320.8196
515.285	64364.91369
515.466	64395.81094
515.647	64433.3641
515.828	64287.78331
516.009	64331.83821
516.189	64406.85198
516.37	64442.20577
516.551	64415.68721
516.732	64415.68721
516.913	64380.35907
517.093	64409.06059
517.274	64415.68721
517.455	64256.97572
517.636	64329.63422
517.816	64320.8196
517.997	64345.06485
518.178	64351.67995
518.358	64451.04959
518.539	64378.15219
518.72	64360.50192
518.9	64349.47479
519.081	64362.70774
519.261	64312.00706
519.442	64228.39121
519.622	64345.06485
519.803	64349.47479
519.984	64298.79216
520.164	64375.94544
520.345	64356.09067
520.525	64342.86008
520.705	64398.01888
520.886	64294.38823
521.066	64508.58726
521.247	64364.91369
521.427	64369.326
521.608	64210.81145
521.788	64395.81094
521.968	64197.63196
522.149	64413.4782
522.329	64336.24656
522.509	64444.41652
522.69	64395.81094
522.87	64424.52458
523.05	64451.04959
523.231	64431.15402
523.411	64391.39546
523.591	64338.45094
523.771	64420.10563
523.951	64334.04232
524.132	64316.41307
524.312	64367.11978
524.492	64395.81094
524.672	64340.65545
524.852	64316.41307
525.032	64378.15219
525.213	64345.06485
525.393	64276.7777
525.573	64453.26088
525.753	64305.39903
525.933	64331.83821
526.113	64338.45094
526.293	64442.20577
526.473	64411.26933
526.653	64265.77532
526.833	64402.43516
527.013	64459.89557
527.193	64375.94544
527.373	64391.39546
527.553	64364.91369
527.733	64334.04232
527.913	64422.31504
528.092	64561.7811
528.272	64347.26975
528.452	64404.6435
528.632	64484.23318
528.812	64389.18791
528.992	64338.45094
529.171	64371.53235
529.351	64466.53147
529.531	64459.89557
529.711	64356.09067
529.89	64457.68387
530.07	64349.47479
530.25	64263.57522
530.43	64267.97554
530.609	64391.39546
530.789	64373.73883
530.969	64362.70774
531.148	64431.15402
531.328	64468.74371
531.507	64422.31504
531.687	64336.24656
531.867	64462.1074
532.046	64320.8196
532.226	64426.73426
532.405	64364.91369
532.585	64386.9805
532.764	64409.06059
532.944	64263.57522
533.123	64391.39546
533.303	64442.20577
533.482	64265.77532
533.662	64417.89635
533.841	64360.50192
534.021	64325.22665
534.2	64413.4782
534.379	64457.68387
534.559	64395.81094
534.738	64356.09067
534.917	64497.51518
535.097	64386.9805
535.276	64382.56608
535.455	64340.65545
535.635	64475.38124
535.814	64420.10563
535.993	64351.67995
536.172	64484.23318
536.352	64446.62741
536.531	64466.53147
536.71	64373.73883
536.889	64393.60313
537.068	64433.3641
537.248	64453.26088
537.427	64316.41307
537.606	64386.9805
537.785	64391.39546
537.964	64406.85198
538.143	64470.95608
538.322	64422.31504
538.501	64389.18791
538.68	64444.41652
538.859	64340.65545
539.038	64479.80694
539.217	64479.80694
539.396	64548.47519
539.575	64404.6435
539.754	64386.9805
539.933	64351.67995
540.112	64572.87318
540.291	64411.26933
540.47	64413.4782
540.649	64415.68721
540.828	64572.87318
541.007	64382.56608
541.186	64490.87357
541.364	64391.39546
541.543	64473.16859
541.722	64428.94407
541.901	64466.53147
542.08	64316.41307
542.258	64353.88524
542.437	64497.51518
542.616	64362.70774
542.795	64517.4474
542.973	64473.16859
543.152	64482.01999
543.331	64459.89557
543.509	64506.37257
543.688	64386.9805
543.867	64484.23318
544.045	64497.51518
544.224	64347.26975
544.402	64087.97838
544.581	64451.04959
544.76	64548.47519
544.938	64442.20577
545.117	64411.26933
545.295	64459.89557
545.474	64457.68387
545.652	64532.95792
545.831	64484.23318
546.009	64353.88524
546.188	64457.68387
546.366	64470.95608
546.544	64448.83843
546.723	64444.41652
546.901	64437.78466
547.08	64380.35907
547.258	64490.87357
547.436	64488.65997
547.615	64537.39073
547.793	64464.31937
547.971	64446.62741
548.15	64462.1074
548.328	64409.06059
548.506	64347.26975
548.684	64320.8196
548.863	64482.01999
549.041	64513.01706
549.219	64570.65448
549.397	64433.3641
549.576	64484.23318
549.754	64442.20577
549.932	64468.74371
550.11	64510.80209
550.288	64546.25802
550.466	64632.83078
550.644	64409.06059
550.822	64506.37257
551.001	64546.25802
551.179	64599.50838
551.357	64535.17426
551.535	64477.59402
551.713	64537.39073
551.891	64541.8241
552.069	64586.18827
552.247	64546.25802
552.425	64581.74935
552.603	64581.74935
552.781	64559.5631
552.958	64590.62774
553.136	64568.43593
553.314	64683.98699
553.492	64639.49907
553.67	64666.18499
553.848	64679.53563
554.026	64777.59883
554.204	64759.74825
554.381	64699.57126
554.559	64761.97906
554.737	64835.67824
554.915	64768.67237
555.092	64726.30356
555.27	64799.92526
555.448	64761.97906
555.626	64813.32818
555.803	64900.57784
555.981	64728.53219
556.159	64858.04318
556.336	64866.99333
556.514	64929.71192
556.692	64884.90085
556.869	64858.04318
557.047	64853.56899
557.224	64884.90085
557.402	64900.57784
557.58	64824.50136
557.757	64938.68142
557.935	65037.50839
558.112	64943.16709
558.29	64931.95407
558.467	65037.50839
558.645	65039.75795
558.822	65053.2586
559	65026.26294
559.177	65001.53665
559.354	64976.82913
559.532	64983.56569
559.709	65015.02138
559.887	64976.82913
560.064	65078.0245
560.241	64954.38394
560.419	64974.58392
560.596	64954.38394
560.773	64947.65337
560.951	64929.71192
561.128	64813.32818
561.305	65042.00767
561.482	64983.56569
561.66	64931.95407
561.837	64927.46993
562.014	64976.82913
562.191	65051.0081
562.368	64997.04298
562.546	64929.71192
562.723	65030.76065
562.9	64999.28974
563.077	64925.22808
563.254	65021.76585
563.431	64990.30364
563.608	64902.81801
563.785	65019.51754
563.962	64958.87175
564.139	65048.75776
564.317	64931.95407
564.494	65064.51347
564.671	64866.99333
564.848	64963.36017
565.025	65015.02138
565.201	65042.00767
565.378	64972.33886
565.555	64970.09396
565.732	65006.03094
565.909	65015.02138
566.086	64997.04298
566.263	65046.50757
566.44	65001.53665
566.617	65042.00767
566.794	64963.36017
566.97	65026.26294
567.147	65096.04807
567.324	64999.28974
567.501	65060.01105
567.678	64997.04298
567.854	65019.51754
568.031	65129.86968
568.208	64999.28974
568.384	65064.51347
568.561	65039.75795
568.738	65064.51347
568.915	65042.00767
569.091	65116.33673
569.268	65075.77227
569.444	65125.35806
569.621	65096.04807
569.798	65123.10249
569.974	65066.76491
570.151	65062.26218
570.327	65078.0245
570.504	65051.0081
570.681	65145.66541
570.857	65114.0818
571.034	65123.10249
571.21	65073.52019
571.387	65220.23761
571.563	65193.09999
571.739	65030.76065
571.916	65242.8703
572.092	65168.24441
572.269	65116.33673
572.445	65129.86968
572.622	65177.28054
572.798	65116.33673
572.974	65170.5032
573.151	65227.02569
573.327	65168.24441
573.503	65066.76491
573.68	65229.28871
573.856	65222.50014
574.032	65227.02569
574.208	65107.31796
574.385	65132.12574
574.561	65245.13447
574.737	65217.97524
574.913	65114.0818
575.089	65217.97524
575.266	65222.50014
575.442	65233.81525
575.618	65073.52019
575.794	65195.36056
575.97	65204.40447
576.146	65134.38195
576.322	65199.88219
576.499	65091.54123
576.675	65109.57241
576.851	65111.82702
577.027	65035.25899
577.203	65168.24441
577.379	65208.92741
577.555	65163.72732
577.731	65118.59182
577.907	64793.22579
578.083	65073.52019
578.259	65145.66541
578.435	65120.84708
578.611	65001.53665
578.786	65017.26938
578.962	65069.01651
579.138	65181.79957
579.314	65073.52019
579.49	65145.66541
579.666	65048.75776
579.842	65125.35806
580.017	65125.35806
580.193	65111.82702
580.369	65060.01105
580.545	65084.78215
580.72	64990.30364
580.896	65120.84708
581.072	65010.52585
581.248	65057.76008
581.423	64985.81152
581.599	65089.28804
581.775	65048.75776
581.95	65051.0081
582.126	65078.0245
582.302	64981.32002
582.477	65044.25754
582.653	65105.06366
582.829	65089.28804
583.004	65179.53997
583.18	65075.77227
583.355	65114.0818
583.531	65044.25754
583.706	65021.76585
583.882	65114.0818
584.057	65197.62129
584.233	65060.01105
584.408	64961.11588
584.584	65080.27689
584.759	65143.4084
584.935	65143.4084
585.11	65129.86968
585.285	65163.72732
585.461	65236.07876
585.636	65136.63832
585.812	65154.69508
585.987	65222.50014
586.162	65208.92741
586.338	65150.17993
586.513	65245.13447
586.688	65306.32971
586.863	65184.05933
587.039	65240.60629
587.214	65215.71304
587.389	65211.18912
587.564	65251.92798
587.74	65208.92741
587.915	65376.74138
588.09	65322.21497
588.265	65258.72297
588.44	65335.83746
588.615	65319.94515
588.791	65308.59853
588.966	65363.10064
589.141	65381.28966
589.316	65301.79257
589.491	65315.406
589.666	65285.91784
589.841	65249.66331
590.016	65360.82778
590.191	65276.85023
590.366	65408.59364
590.541	65426.81
590.716	65376.74138
590.891	65354.01021
591.066	65449.59597
591.241	65424.53236
591.416	65442.75836
591.591	65431.36581
591.766	65431.36581
591.941	65545.48731
592.116	65559.21144
592.29	65440.47951
592.465	65488.37191
592.64	65602.71354
592.815	65536.34144
592.99	65586.67894
593.165	65545.48731
593.339	65568.36442
593.514	65538.62764
593.689	65460.99544
593.864	65543.20058
594.038	65570.65311
594.213	65463.27585
594.388	65545.48731
594.562	65522.62794
594.737	65460.99544
594.912	65540.91402
595.086	65598.13133
595.261	65550.06131
595.436	65479.24363
595.61	65499.7862
595.785	65492.9371
595.959	65488.37191
596.134	65529.48389
596.309	65527.1984
596.483	65534.05541
596.658	65522.62794
596.832	65550.06131
597.007	65424.53236
597.181	65582.09923
597.356	65497.50299
597.53	65586.67894
597.704	65559.21144
597.879	65518.05818
598.053	65522.62794
598.228	65435.92232
598.402	65433.64398
598.576	65534.05541
598.751	65449.59597
598.925	65508.92079
599.1	65508.92079
599.274	65554.63602
599.448	65520.34297
599.622	65426.81
599.797	65504.35314
599.971	65504.35314
600.145	65381.28966
600.32	65476.962
600.494	65502.06958
600.668	65454.15524
600.842	65442.75836
601.016	65552.34858
601.191	65454.15524
601.365	65245.13447
601.539	65474.68054
601.713	65508.92079
601.887	65417.70045
602.061	65534.05541
602.235	65456.43513
602.409	65527.1984
602.583	65465.55644
602.758	65588.96906
602.932	65527.1984
603.106	65591.25936
603.28	65540.91402
603.454	65495.21996
603.628	65449.59597
603.802	65545.48731
603.976	65529.48389
604.149	65511.20487
604.323	65465.55644
604.497	65543.20058
604.671	65460.99544
604.845	65495.21996
605.019	65534.05541
605.193	65545.48731
605.367	65458.7152
605.541	65490.65442
605.714	65435.92232
605.888	65445.03739
606.062	65515.77357
606.236	65618.75696
606.41	65401.76534
606.583	65527.1984
606.757	65550.06131
606.931	65495.21996
607.105	65529.48389
607.278	65534.05541
607.452	65579.80965
607.626	65445.03739
607.799	65529.48389
607.973	65547.77422
608.147	65488.37191
608.32	65545.48731
608.494	65499.7862
608.668	65527.1984
608.841	65426.81
609.015	65438.20083
609.188	65490.65442
609.362	65600.42235
609.535	65513.48913
609.709	65538.62764
609.882	65502.06958
610.056	65474.68054
610.229	65504.35314
610.403	65506.63688
610.576	65401.76534
610.75	65474.68054
610.923	65504.35314
611.097	65561.49942
611.27	65429.08782
611.443	65495.21996
611.617	65595.84049
611.79	65600.42235
611.963	65492.9371
612.137	65504.35314
612.31	65499.7862
612.483	65527.1984
612.657	65511.20487
612.83	65568.36442
613.003	65566.07591
613.177	65527.1984
613.35	65545.48731
613.523	65504.35314
613.696	65481.52544
613.869	65618.75696
614.043	65456.43513
614.216	65504.35314
614.389	65543.20058
614.562	65465.55644
614.735	65520.34297
614.908	65529.48389
615.082	65463.27585
615.255	65508.92079
615.428	65472.39925
615.601	65550.06131
615.774	65522.62794
615.947	65476.962
616.12	65381.28966
616.293	65417.70045
616.466	65431.36581
616.639	65449.59597
616.812	65481.52544
616.985	65399.48958
617.158	65479.24363
617.331	65497.50299
617.504	65476.962
617.677	65554.63602
617.85	65508.92079
618.022	65522.62794
618.195	65504.35314
618.368	65440.47951
618.541	65426.81
618.714	65506.63688
618.887	65495.21996
619.059	65460.99544
619.232	65504.35314
619.405	65347.19416
619.578	65376.74138
619.751	65486.08958
619.923	65463.27585
620.096	65394.93857
620.269	65415.42349
620.441	65465.55644
620.614	65506.63688
620.787	65433.64398
620.96	65447.31659
621.132	65351.73802
621.305	65324.48497
621.477	65381.28966
621.65	65467.83721
621.823	65481.52544
621.995	65376.74138
622.168	65385.83861
622.34	65388.11335
622.513	65399.48958
622.685	65394.93857
622.858	65376.74138
623.03	65435.92232
623.203	65463.27585
623.375	65415.42349
623.548	65456.43513
623.72	65388.11335
623.893	65390.38825
624.065	65413.1467
624.238	65406.31737
624.41	65506.63688
624.582	65344.92248
624.755	65422.25488
624.927	65399.48958
625.1	65392.66333
625.272	65465.55644
625.444	65358.55509
625.617	65272.31742
625.789	65349.46601
625.961	65410.87008
626.133	65347.19416
626.306	65333.56662
626.478	65333.56662
626.65	65317.67549
626.822	65399.48958
626.995	65297.2561
627.167	65308.59853
627.339	65379.01544
627.511	65270.05126
627.683	65308.59853
627.855	65279.11688
628.027	65358.55509
628.2	65292.7203
628.372	65317.67549
628.544	65319.94515
628.716	65317.67549
628.888	65294.98811
629.06	65231.5519
629.232	65394.93857
629.404	65319.94515
629.576	65236.07876
629.748	65335.83746
629.92	65197.62129
630.092	65186.31925
630.264	65283.65069
630.436	65360.82778
630.608	65292.7203
630.78	65288.18516
630.952	65331.29596
631.124	65254.19281
631.295	65276.85023
631.467	65329.02546
631.639	65245.13447
631.811	65324.48497
631.983	65304.06106
632.155	65304.06106
632.326	65299.52425
632.498	65294.98811
632.67	65304.06106
632.842	65338.10846
633.014	65283.65069
633.185	65227.02569
633.357	65315.406
633.529	65188.57933
633.7	65222.50014
633.872	65338.10846
634.044	65340.37963
634.215	65229.28871
634.387	65304.06106
634.559	65381.28966
634.73	65324.48497
634.902	65372.19379
635.074	65308.59853
635.245	65299.52425
635.417	65322.21497
635.588	65236.07876
635.76	65381.28966
635.931	65367.64688
636.103	65381.28966
636.274	65276.85023
636.446	65329.02546
636.617	65263.25379
636.789	65356.28256
636.96	65349.46601
637.132	65369.92025
637.303	65358.55509
637.474	65390.38825
637.646	65308.59853
637.817	65383.56405
637.989	65335.83746
638.16	65394.93857
638.331	65417.70045
638.503	65281.3837
638.674	65313.13667
638.845	65417.70045
639.017	65329.02546
639.188	65331.29596
639.359	65419.97758
639.53	65406.31737
639.702	65335.83746
639.873	65415.42349
640.044	65379.01544
640.215	65390.38825
640.387	65290.45264
640.558	65272.31742
640.729	65245.13447
640.9	65274.58374
641.071	65285.91784
641.242	65290.45264
641.413	65301.79257
641.585	65347.19416
641.756	65274.58374
641.927	65401.76534
642.098	65326.75513
642.269	65324.48497
642.44	65390.38825
642.611	65317.67549
642.782	65324.48497
642.953	65233.81525
643.124	65276.85023
643.295	65399.48958
643.466	65265.51945
643.637	65329.02546
643.808	65310.86752
643.979	65242.8703
644.15	65215.71304
644.32	65270.05126
644.491	65288.18516
644.662	65435.92232
644.833	65313.13667
645.004	65279.11688
645.175	65322.21497
645.346	65258.72297
645.516	65351.73802
645.687	65304.06106
645.858	65306.32971
646.029	65256.45781
646.199	65338.10846
646.37	65299.52425
646.541	65363.10064
646.712	65236.07876
646.882	65283.65069
647.053	65315.406
647.224	65310.86752
647.394	65297.2561
647.565	65301.79257
647.736	65340.37963
647.906	65374.4675
648.077	65301.79257
648.248	65372.19379
648.418	65344.92248
648.589	65388.11335
648.759	65329.02546
648.93	65331.29596
649.1	65390.38825
649.271	65258.72297
649.441	65267.78527
649.612	65340.37963
649.782	65265.51945
649.953	65247.39881
650.123	65299.52425
650.294	65240.60629
650.464	65281.3837
650.635	64988.0575
650.805	65304.06106
650.975	65177.28054
651.146	65340.37963
651.316	65294.98811
651.487	65324.48497
651.657	65326.75513
651.827	65258.72297
651.998	65381.28966
652.168	65267.78527
652.338	65331.29596
652.508	65397.21399
652.679	65319.94515
652.849	65240.60629
653.019	65276.85023
653.189	65272.31742
653.36	65285.91784
653.53	65381.28966
653.7	65288.18516
653.87	65401.76534
654.04	65335.83746
654.211	65354.01021
654.381	65258.72297
654.551	65372.19379
654.721	65281.3837
654.891	65356.28256
655.061	65279.11688
655.231	65390.38825
655.401	65404.04127
655.571	65369.92025
655.741	65288.18516
655.911	65335.83746
656.081	65274.58374
656.251	65406.31737
656.421	65301.79257
656.591	65397.21399
656.761	65313.13667
656.931	65438.20083
657.101	65404.04127
657.271	65349.46601
657.441	65326.75513
657.611	65440.47951
657.781	65331.29596
657.951	65374.4675
658.121	65313.13667
658.291	65308.59853
658.46	65415.42349
658.63	65342.65097
658.8	65369.92025
658.97	65338.10846
659.14	65285.91784
659.309	65365.37368
659.479	65319.94515
659.649	65394.93857
659.819	65310.86752
659.988	65431.36581
660.158	65463.27585
660.328	65342.65097
660.497	65406.31737
660.667	65392.66333
660.837	65342.65097
661.006	65322.21497
661.176	65481.52544
661.346	65372.19379
661.515	65413.1467
661.685	65417.70045
661.854	65374.4675
662.024	65401.76534
662.194	65363.10064
662.363	65351.73802
662.533	65404.04127
662.702	65499.7862
662.872	65449.59597
663.041	65340.37963
663.211	65486.08958
663.38	65543.20058
663.55	65406.31737
663.719	65401.76534
663.889	65524.91308
664.058	65481.52544
664.227	65426.81
664.397	65413.1467
664.566	65410.87008
664.735	65499.7862
664.905	65460.99544
665.074	65460.99544
665.244	65445.03739
665.413	65508.92079
665.582	65422.25488
665.751	65456.43513
665.921	65458.7152
666.09	65467.83721
666.259	65419.97758
666.428	65463.27585
666.598	65467.83721
666.767	65410.87008
666.936	65419.97758
667.105	65399.48958
667.275	65451.87551
667.444	65449.59597
667.613	65356.28256
667.782	65508.92079
667.951	65413.1467
668.12	65440.47951
668.289	65451.87551
668.458	65404.04127
668.628	65506.63688
668.797	65474.68054
668.966	65490.65442
669.135	65372.19379
669.304	65442.75836
669.473	65442.75836
669.642	65470.11814
669.811	65472.39925
669.98	65424.53236
670.149	65401.76534
670.318	65518.05818
670.487	65486.08958
670.656	65431.36581
670.824	65476.962
670.993	65527.1984
671.162	65429.08782
671.331	65415.42349
671.5	65479.24363
671.669	65499.7862
671.838	65515.77357
672.007	65449.59597
672.175	65465.55644
672.344	65476.962
672.513	65335.83746
672.682	65511.20487
672.85	65426.81
673.019	65394.93857
673.188	65369.92025
673.357	65424.53236
673.525	65515.77357
673.694	65515.77357
673.863	65465.55644
674.032	65426.81
674.2	65492.9371
674.369	65492.9371
674.537	65435.92232
674.706	65531.76957
674.875	65483.80742
675.043	65463.27585
675.212	65449.59597
675.381	65449.59597
675.549	65504.35314
675.718	65522.62794
675.886	65474.68054
676.055	65545.48731
676.223	65518.05818
676.392	65454.15524
676.56	65467.83721
676.729	65479.24363
676.897	65540.91402
677.066	65504.35314
677.234	65502.06958
677.403	65605.00492
677.571	65508.92079
677.739	65499.7862
677.908	65522.62794
678.076	65474.68054
678.244	65488.37191
678.413	65538.62764
678.581	65470.11814
678.75	65524.91308
678.918	65529.48389
679.086	65513.48913
679.254	65607.29647
679.423	65417.70045
679.591	65513.48913
679.759	65508.92079
679.928	65536.34144
680.096	65488.37191
680.264	65522.62794
680.432	65483.80742
680.6	65511.20487
680.769	65463.27585
680.937	65563.78757
681.105	65463.27585
681.273	65460.99544
681.441	65515.77357
681.609	65408.59364
681.777	65515.77357
681.945	65481.52544
682.114	65538.62764
682.282	65490.65442
682.45	65522.62794
682.618	65550.06131
682.786	65607.29647
682.954	65502.06958
683.122	65331.29596
683.29	65429.08782
683.458	65536.34144
683.626	65531.76957
683.794	65502.06958
683.962	65621.0496
684.13	65447.31659
684.298	65561.49942
684.465	65495.21996
684.633	65550.06131
684.801	65563.78757
684.969	65538.62764
685.137	65458.7152
685.305	65559.21144
685.473	65499.7862
685.64	65559.21144
685.808	65637.10313
685.976	65431.36581
686.144	65586.67894
686.312	65417.70045
686.479	65579.80965
686.647	65570.65311
686.815	65529.48389
686.983	65547.77422
687.15	65511.20487
687.318	65545.48731
687.486	65513.48913
687.653	65499.7862
687.821	65552.34858
687.989	65502.06958
688.156	65593.54983
688.324	65568.36442
688.492	65511.20487
688.659	65655.4609
688.827	65483.80742
688.994	65577.52025
689.162	65559.21144
689.329	65451.87551
689.497	65579.80965
689.665	65621.0496
689.832	65508.92079
690	65490.65442
690.167	65588.96906
690.335	65550.06131
690.502	65572.94198
690.669	65508.92079
690.837	65552.34858
691.004	65460.99544
691.172	65458.7152
691.339	65442.75836
691.507	65611.88013
691.674	65577.52025
691.841	65586.67894
692.009	65625.63541
692.176	65540.91402
692.343	65586.67894
692.511	65547.77422
692.678	65554.63602
692.845	65540.91402
693.013	65595.84049
693.18	65506.63688
693.347	65527.1984
693.514	65630.22196
693.682	65529.48389
693.849	65575.23102
694.016	65554.63602
694.183	65486.08958
694.35	65669.23687
694.518	65582.09923
694.685	65584.389
694.852	65579.80965
695.019	65673.83032
695.186	65543.20058
695.353	65465.55644
695.52	65520.34297
695.687	65515.77357
695.855	65534.05541
696.022	65531.76957
696.189	65577.52025
696.356	65595.84049
696.523	65646.28056
696.69	65463.27585
696.857	65673.83032
697.024	65502.06958
697.191	65593.54983
697.358	65504.35314
697.525	65486.08958
697.692	65536.34144
697.858	65611.88013
698.025	65520.34297
698.192	65524.91308
698.359	65625.63541
698.526	65536.34144
698.693	65543.20058
698.86	65586.67894
699.027	65566.07591
699.193	65632.5155
699.36	65586.67894
699.527	65598.13133
699.694	65621.0496
699.861	65621.0496
700.027	65463.27585
700.194	65508.92079
700.361	65524.91308
700.528	65515.77357
700.694	65570.65311
700.861	65607.29647
701.028	65538.62764
701.195	65538.62764
701.361	65529.48389
701.528	65577.52025
701.694	65520.34297
701.861	65646.28056
702.028	65447.31659
702.194	65506.63688
702.361	65577.52025
702.528	65575.23102
702.694	65568.36442
702.861	65422.25488
703.027	65536.34144
703.194	65593.54983
703.36	65538.62764
703.527	65637.10313
703.693	65483.80742
703.86	65472.39925
704.026	65561.49942
704.193	65712.9043
704.359	65559.21144
704.526	65609.58821
