Data from Sun spf750_Subt2__1__10-05-12-078.txt Node

Date: Tue Sep 23 10:05:12 EDT 2025
User: brett
Spectrometer: USB4F03499
Trigger mode: 4
Integration Time (sec): 1.000000E-1
Scans to average: 1
Electric dark correction enabled: true
Nonlinearity correction enabled: true
Boxcar width: 0
XAxis mode: Wavelengths
Number of Pixels in Spectrum: 3648
>>>>>Begin Spectral Data<<<<<
0	-14.61918
0.225	-14.61918
0.449	-14.61918
0.674	-69.94393
0.898	45.26741
1.123	-48.86804
1.347	-16.79969
1.572	61.09945
1.796	40.5696
2.021	15.28566
2.245	26.66549
2.469	-44.36698
2.694	-69.46527
2.918	45.06967
3.143	-39.80255
3.367	22.13898
3.591	8.41143
3.815	49.62578
4.04	779.53316
4.264	993.41027
4.488	1077.50395
4.712	1080.20656
4.936	910.52912
5.161	1105.75649
5.385	1064.39561
5.609	1020.44036
5.833	1065.01652
6.057	1203.12864
6.281	993.86321
6.505	1090.41381
6.729	1069.29445
6.953	1138.80499
7.177	1084.07287
7.401	1007.04794
7.625	1068.4931
7.849	1078.79033
8.073	1154.8312
8.297	1086.74299
8.521	1156.88274
8.744	1110.68091
8.968	1222.30079
9.192	1069.29291
9.416	1136.66778
9.64	1099.59415
9.863	1157.12638
10.087	1066.01073
10.311	1141.22408
10.535	1096.5187
10.758	1139.48211
10.982	1142.55837
11.205	1171.33424
11.429	1166.72666
11.653	1108.81088
11.876	1054.09537
12.1	1074.73451
12.323	1082.61666
12.547	1158.52838
12.77	1212.43353
12.994	1207.37585
13.217	1269.16018
13.441	1207.42242
13.664	1283.10411
13.887	1145.65232
14.111	1296.84685
14.334	1268.63463
14.557	1146.42434
14.781	1227.47886
15.004	1158.16875
15.227	1165.51464
15.451	1263.41738
15.674	1071.87831
15.897	1145.3997
16.12	1252.6761
16.343	1173.44022
16.567	1360.58405
16.79	1308.75792
17.013	1127.98016
17.236	1239.95487
17.459	1333.91364
17.682	1146.82341
17.905	1230.36091
18.128	1267.83269
18.351	1362.78333
18.574	1224.76942
18.797	1449.62038
19.02	1252.4176
19.243	1360.71342
19.466	1260.1146
19.689	1342.16528
19.911	1468.27629
20.134	1382.92116
20.357	1335.75003
20.58	1296.66913
20.803	1417.19416
21.025	1245.7163
21.248	1367.73977
21.471	1395.97118
21.694	1401.67929
21.916	1433.66521
22.139	1492.0596
22.362	1319.50222
22.584	1414.38014
22.807	1506.93076
23.029	1360.12198
23.252	1357.46308
23.475	1542.09664
23.697	1487.1564
23.92	1440.93528
24.142	1537.57549
24.365	1550.08429
24.587	1610.14115
24.809	1498.37109
25.032	1576.73554
25.254	1404.55889
25.477	1522.10574
25.699	1608.38275
25.921	1529.23014
26.144	1612.49175
26.366	1593.88101
26.588	1691.96088
26.81	1647.69944
27.033	1560.80102
27.255	1587.13038
27.477	1719.44556
27.699	1802.62798
27.921	1676.95001
28.144	1732.06415
28.366	1785.54603
28.588	1990.3085
28.81	1850.08477
29.032	1897.11966
29.254	1843.93169
29.476	1892.2966
29.698	1865.65406
29.92	2043.10071
30.142	2159.32326
30.364	2100.08285
30.586	2203.43514
30.808	2195.14708
31.029	2287.90311
31.251	2301.82729
31.473	2382.16771
31.695	2536.07666
31.917	2494.801
32.139	2611.02999
32.36	2501.61127
32.582	2700.64024
32.804	2755.47283
33.026	2804.69629
33.247	2651.42741
33.469	2974.72697
33.691	2885.74172
33.912	3147.13905
34.134	3303.11375
34.355	3295.97765
34.577	3441.68623
34.798	3401.67163
35.02	3572.42901
35.242	3597.24987
35.463	3775.56538
35.684	3983.43189
35.906	4119.94572
36.127	4060.79721
36.349	4067.15083
36.57	4380.79926
36.792	4694.84017
37.013	4920.03957
37.234	5050.35498
37.456	4981.67104
37.677	5376.79824
37.898	5477.29325
38.119	5696.3061
38.341	5785.5455
38.562	6175.3762
38.783	6318.93623
39.004	6418.75798
39.225	6453.1767
39.447	6835.7453
39.668	7369.53998
39.889	7376.78599
40.11	7752.97407
40.331	7970.1769
40.552	8257.95251
40.773	8403.99509
40.994	8963.40252
41.215	9228.31531
41.436	9843.12888
41.657	10029.31417
41.878	10542.15941
42.099	11022.97597
42.32	11602.45196
42.54	11984.45299
42.761	12564.55533
42.982	12951.816
43.203	13688.09083
43.424	14433.94002
43.645	14489.93633
43.865	15149.06896
44.086	15179.12658
44.307	16038.45106
44.527	16625.7387
44.748	17372.78454
44.969	17714.5337
45.189	17616.61809
45.41	18155.35884
45.631	18984.96891
45.851	19122.1035
46.072	19457.80114
46.292	20033.06199
46.513	20526.37612
46.733	21528.58828
46.954	21998.24255
47.174	22892.41294
47.395	23028.84413
47.615	23999.26669
47.836	24658.25166
48.056	25450.32488
48.276	24948.44514
48.497	25177.34784
48.717	26958.60187
48.937	26597.4736
49.158	27515.77206
49.378	27499.20785
49.598	28002.02155
49.818	29181.35315
50.038	29618.53933
50.259	30393.75904
50.479	30885.92077
50.699	32012.30231
50.919	33259.91091
51.139	34159.38146
51.359	34847.25506
51.579	36476.23322
51.799	36093.49924
52.02	37918.53868
52.24	38606.40193
52.46	39433.30017
52.68	41014.42286
52.899	40187.55397
53.119	41970.1759
53.339	45059.11788
53.559	44572.29865
53.779	46386.38208
53.999	48524.40069
54.219	49261.74336
54.439	51185.2049
54.658	51766.49596
54.878	54601.54042
55.098	55364.06743
55.318	55011.98837
55.538	58284.45093
55.757	58640.07118
55.977	59147.67971
56.197	60285.26568
56.416	61972.90542
56.636	63660.49866
56.855	65610.25038
57.075	65525.47589
57.295	65621.72535
57.514	65663.07303
57.734	65559.81429
57.953	65575.85266
58.173	65566.6868
58.392	65603.36758
58.612	65612.54501
58.831	65617.13482
59.051	65555.23351
59.27	65488.89239
59.489	65571.26937
59.709	65585.02141
59.928	65605.66166
60.147	65589.60687
60.367	65614.83982
60.586	65536.91756
60.805	65596.48641
61.024	65578.14458
61.244	65658.47591
61.463	65591.89987
61.682	65568.978
61.901	65557.52381
62.12	65614.83982
62.34	65578.14458
62.559	65582.72895
62.778	65459.20156
62.997	65603.36758
63.216	65646.98633
63.435	65640.09478
63.654	65488.89239
63.873	65601.07367
64.092	65587.31405
64.311	65527.76387
64.53	65566.6868
64.749	65585.02141
64.968	65573.56093
65.187	65669.97009
65.405	65587.31405
65.624	65582.72895
65.843	65562.10494
66.062	65571.26937
66.281	65534.62887
66.499	65658.47591
66.718	65640.09478
66.937	65557.52381
67.156	65573.56093
67.374	65612.54501
67.593	65475.18524
67.812	65582.72895
68.03	65594.19305
68.249	65642.39178
68.467	65612.54501
68.686	65546.0741
68.905	65534.62887
69.123	65704.48032
69.342	65578.14458
69.56	65607.95593
69.779	65681.46887
69.997	65555.23351
70.216	65596.48641
70.434	65571.26937
70.652	65541.49547
70.871	65587.31405
71.089	65614.83982
71.307	65656.17763
71.526	65564.39578
71.744	65621.72535
71.962	65614.83982
72.181	65619.42999
72.399	65612.54501
72.617	65568.978
72.835	65552.94339
73.054	65621.72535
73.272	65598.77995
73.49	65610.25038
73.708	65663.07303
73.926	65653.87953
74.144	65649.28388
74.362	65564.39578
74.58	65598.77995
74.798	65596.48641
75.016	65580.43668
75.234	65612.54501
75.452	65587.31405
75.67	65550.65345
75.888	65624.02089
76.106	65525.47589
76.324	65658.47591
76.542	65663.07303
76.76	65582.72895
76.978	65594.19305
77.196	65626.31661
77.413	65552.94339
77.631	65530.05203
77.849	65637.79796
78.067	65548.36369
78.284	65546.0741
78.502	65603.36758
78.72	65603.36758
78.938	65658.47591
79.155	65640.09478
79.373	65594.19305
79.59	65640.09478
79.808	65603.36758
80.026	65628.61252
80.243	65612.54501
80.461	65502.60589
80.678	65486.60743
80.896	65546.0741
81.113	65575.85266
81.331	65607.95593
81.548	65402.18677
81.766	65541.49547
81.983	65564.39578
82.2	65614.83982
82.418	65669.97009
82.635	65534.62887
82.852	65438.66371
83.07	65585.02141
83.287	65596.48641
83.504	65562.10494
83.722	65488.89239
83.939	65578.14458
84.156	65482.03802
84.373	65635.50132
84.591	65594.19305
84.808	65580.43668
85.025	65541.49547
85.242	65614.83982
85.459	65573.56093
85.676	65585.02141
85.893	65651.58161
86.11	65566.6868
86.327	65568.978
86.544	65580.43668
86.761	65610.25038
86.978	65541.49547
87.195	65575.85266
87.412	65686.06968
87.629	65630.9086
87.846	65591.89987
88.063	65507.17847
88.28	65585.02141
88.497	65594.19305
88.713	65624.02089
88.93	65649.28388
89.147	65610.25038
89.364	65550.65345
89.58	65578.14458
89.797	65550.65345
90.014	65580.43668
90.231	65527.76387
90.447	65605.66166
90.664	65550.65345
90.881	65559.81429
91.097	65514.03868
91.314	65520.90047
91.53	65598.77995
91.747	65568.978
91.963	65633.20487
92.18	65585.02141
92.396	65585.02141
92.613	65571.26937
92.829	65669.97009
93.046	65653.87953
93.262	65644.68896
93.479	65552.94339
93.695	65559.81429
93.911	65594.19305
94.128	65644.68896
94.344	65507.17847
94.56	65546.0741
94.777	65692.97228
94.993	65624.02089
95.209	65518.61303
95.426	65365.75403
95.642	65646.98633
95.858	65607.95593
96.074	65591.89987
96.29	65658.47591
96.506	65587.31405
96.723	65568.978
96.939	65640.09478
97.155	65628.61252
97.371	65578.14458
97.587	65610.25038
97.803	65612.54501
98.019	65603.36758
98.235	65546.0741
98.451	65635.50132
98.667	65488.89239
98.883	65626.31661
99.099	65658.47591
99.315	65630.9086
99.53	65571.26937
99.746	65603.36758
99.962	65637.79796
100.178	65594.19305
100.394	65596.48641
100.61	65663.07303
100.825	65548.36369
101.041	65626.31661
101.257	65573.56093
101.473	65578.14458
101.688	65559.81429
101.904	65617.13482
102.12	65585.02141
102.335	65571.26937
102.551	65617.13482
102.766	65525.47589
102.982	65603.36758
103.198	65624.02089
103.413	65582.72895
103.629	65614.83982
103.844	65607.95593
104.06	65596.48641
104.275	65543.7847
104.49	65562.10494
104.706	65635.50132
104.921	64999.27419
105.137	65582.72895
105.352	65516.32576
105.567	65596.48641
105.783	65573.56093
105.998	65566.6868
106.213	65548.36369
106.429	65633.20487
106.644	65617.13482
106.859	65575.85266
107.074	42839.76898
107.29	23619.68587
107.505	11079.47187
107.72	11528.16926
107.935	11573.03878
108.15	11470.1192
108.365	11465.81
108.58	11781.65578
108.795	11780.83327
109.01	11249.80089
109.226	11677.87584
109.441	11496.15556
109.656	11997.69406
109.871	12195.22411
110.085	11764.07133
110.3	11570.21798
110.515	11916.21244
110.73	11946.9396
110.945	12766.64801
111.16	12408.96113
111.375	13004.31763
111.59	13084.71833
111.804	12685.88171
112.019	12446.25306
112.234	12797.449
112.449	12896.88288
112.663	13165.75915
112.878	13537.72283
113.093	12859.47918
113.308	12726.09948
113.522	13111.2982
113.737	13142.30742
113.951	13293.31781
114.166	13325.40087
114.381	13683.20771
114.595	13766.68713
114.81	13230.40298
115.024	13276.43233
115.239	13789.74743
115.453	14265.55883
115.668	14853.55725
115.882	14004.94772
116.097	14310.08478
116.311	14544.27693
116.525	15331.71948
116.74	15349.48504
116.954	15317.31539
117.169	15062.13749
117.383	15140.84037
117.597	15732.42333
117.811	16107.67605
118.026	15954.15081
118.24	16867.57003
118.454	16656.92239
118.668	16685.54615
118.883	16367.60711
119.097	16756.33048
119.311	16367.48937
119.525	17425.31208
119.739	17091.42466
119.953	16812.20514
120.167	17041.10704
120.381	17782.08298
120.595	18015.39166
120.809	18271.70695
121.023	18590.03676
121.237	19349.71006
121.451	19722.44674
121.665	19480.21213
121.879	19793.4201
122.093	20208.83946
122.307	19564.14929
122.521	20361.75336
122.735	20767.80098
122.949	20857.9063
123.163	21307.46143
123.376	21928.74369
123.59	22793.21764
123.804	22557.44187
124.018	22431.36554
124.231	22831.49462
124.445	23123.09984
124.659	22874.89124
124.872	24020.96806
125.086	23954.22567
125.3	24067.72683
125.513	25784.60104
125.727	26744.31438
125.94	26707.87447
126.154	27723.2026
126.368	28187.33375
126.581	28129.45685
126.795	29231.90242
127.008	31553.04793
127.222	33008.66524
127.435	32647.25307
127.648	34929.35596
127.862	36757.0831
128.075	38896.05663
128.289	41681.06625
128.502	43165.28214
128.715	46004.73034
128.929	49348.65162
129.142	54164.71549
129.355	57972.83438
129.568	63465.15625
129.782	65562.10494
129.995	65507.17847
130.208	65607.95593
130.421	65628.61252
130.634	65621.72535
130.848	65543.7847
131.061	65507.17847
131.274	65548.36369
131.487	65646.98633
131.7	65619.42999
131.913	65546.0741
132.126	65591.89987
132.339	65495.74835
132.552	65406.74396
132.765	65514.03868
132.978	65591.89987
133.191	65614.83982
133.404	65550.65345
133.617	65610.25038
133.83	65562.10494
134.043	65640.09478
134.255	65665.37187
134.468	65564.39578
134.681	65660.77438
134.894	65702.17834
135.107	65630.9086
135.319	65552.94339
135.532	65580.43668
135.745	65546.0741
135.958	65598.77995
136.17	65672.26948
136.383	65575.85266
136.596	65624.02089
136.808	65596.48641
137.021	65534.62887
137.233	65626.31661
137.446	65568.978
137.659	65607.95593
137.871	65459.20156
138.084	65598.77995
138.296	65559.81429
138.509	65594.19305
138.721	65628.61252
138.934	65575.85266
139.146	65562.10494
139.358	65621.72535
139.571	65500.31987
139.783	65504.8921
139.996	65580.43668
140.208	65525.47589
140.42	65532.34036
140.632	65559.81429
140.845	65612.54501
141.057	65672.26948
141.269	65619.42999
141.481	65594.19305
141.694	65640.09478
141.906	65573.56093
142.118	65690.67123
142.33	65566.6868
142.542	65646.98633
142.754	65555.23351
142.967	65679.16875
143.179	65633.20487
143.391	65520.90047
143.603	65612.54501
143.815	65509.46503
144.027	65589.60687
144.239	65482.03802
144.451	65580.43668
144.663	65591.89987
144.875	65516.32576
145.086	65484.32264
145.298	65536.91756
145.51	65614.83982
145.722	65518.61303
145.934	65607.95593
146.146	65612.54501
146.358	65596.48641
146.569	65646.98633
146.781	65562.10494
146.993	65644.68896
147.205	65498.03402
147.416	65598.77995
147.628	65589.60687
147.84	65548.36369
148.051	65596.48641
148.263	65562.10494
148.475	65635.50132
148.686	65601.07367
148.898	65525.47589
149.109	65509.46503
149.321	65637.79796
149.532	65516.32576
149.744	65573.56093
149.955	65550.65345
150.167	65605.66166
150.378	65591.89987
150.59	65621.72535
150.801	65660.77438
151.013	65646.98633
151.224	65509.46503
151.435	65596.48641
151.647	65509.46503
151.858	65564.39578
152.069	65596.48641
152.281	65598.77995
152.492	65568.978
152.703	65603.36758
152.914	65468.33404
153.126	65564.39578
153.337	65568.978
153.548	65665.37187
153.759	65559.81429
153.97	65644.68896
154.181	65628.61252
154.392	65539.20643
154.604	65656.17763
154.815	65619.42999
155.026	65552.94339
155.237	65596.48641
155.448	65488.89239
155.659	65571.26937
155.87	65578.14458
156.081	65557.52381
156.292	65626.31661
156.502	65658.47591
156.713	65555.23351
156.924	65532.34036
157.135	65575.85266
157.346	65591.89987
157.557	65555.23351
157.768	65621.72535
157.978	65663.07303
158.189	65566.6868
158.4	65628.61252
158.611	65566.6868
158.821	65516.32576
159.032	65605.66166
159.243	65536.91756
159.453	65585.02141
159.664	65585.02141
159.875	65546.0741
160.085	65621.72535
160.296	65546.0741
160.507	65605.66166
160.717	65630.9086
160.928	65543.7847
161.138	65748.25333
161.349	65603.36758
161.559	65669.97009
161.77	65601.07367
161.98	65624.02089
162.19	65550.65345
162.401	65605.66166
162.611	65539.20643
162.822	65612.54501
163.032	65605.66166
163.242	65619.42999
163.453	65539.20643
163.663	65642.39178
163.873	65566.6868
164.084	65628.61252
164.294	65640.09478
164.504	65589.60687
164.714	65571.26937
164.924	65573.56093
165.135	65624.02089
165.345	65543.7847
165.555	65582.72895
165.765	65530.05203
165.975	65539.20643
166.185	65587.31405
166.395	65614.83982
166.605	65656.17763
166.815	65644.68896
167.025	65603.36758
167.235	65504.8921
167.445	65702.17834
167.655	65566.6868
167.865	65596.48641
168.075	65580.43668
168.285	65596.48641
168.495	65578.14458
168.705	65514.03868
168.915	65488.89239
169.124	65552.94339
169.334	65555.23351
169.544	65559.81429
169.754	65596.48641
169.964	65550.65345
170.173	65525.47589
170.383	65571.26937
170.593	65578.14458
170.802	65534.62887
171.012	65637.79796
171.222	65601.07367
171.431	65642.39178
171.641	65607.95593
171.851	65663.07303
172.06	65621.72535
172.27	65624.02089
172.479	65557.52381
172.689	65619.42999
172.898	65566.6868
173.108	65610.25038
173.317	65543.7847
173.527	65649.28388
173.736	65653.87953
173.945	65580.43668
174.155	65541.49547
174.364	65543.7847
174.574	65580.43668
174.783	65591.89987
174.992	65530.05203
175.202	65589.60687
175.411	65532.34036
175.62	65619.42999
175.829	65633.20487
176.039	65568.978
176.248	65539.20643
176.457	65591.89987
176.666	65507.17847
176.875	65624.02089
177.084	65552.94339
177.294	65630.9086
177.503	65644.68896
177.712	65502.60589
177.921	65626.31661
178.13	65594.19305
178.339	65681.46887
178.548	65614.83982
178.757	65582.72895
178.966	65543.7847
179.175	65557.52381
179.384	65601.07367
179.593	65578.14458
179.802	65656.17763
180.011	65582.72895
180.219	65603.36758
180.428	65573.56093
180.637	65573.56093
180.846	65543.7847
181.055	65575.85266
181.263	65601.07367
181.472	65498.03402
181.681	65630.9086
181.89	65566.6868
182.098	65500.31987
182.307	65607.95593
182.516	65568.978
182.724	65585.02141
182.933	65548.36369
183.142	65672.26948
183.35	65568.978
183.559	65575.85266
183.767	65591.89987
183.976	65621.72535
184.184	65635.50132
184.393	65562.10494
184.601	65621.72535
184.81	65502.60589
185.018	65626.31661
185.227	65564.39578
185.435	65644.68896
185.644	65548.36369
185.852	65690.67123
186.06	65546.0741
186.269	65546.0741
186.477	65541.49547
186.685	65589.60687
186.894	65500.31987
187.102	65585.02141
187.31	65516.32576
187.518	65589.60687
187.727	65674.56905
187.935	65651.58161
188.143	65591.89987
188.351	65559.81429
188.559	65651.58161
188.768	65514.03868
188.976	65534.62887
189.184	65550.65345
189.392	65548.36369
189.6	65557.52381
189.808	65477.46932
190.016	65619.42999
190.224	65607.95593
190.432	65578.14458
190.64	65582.72895
190.848	65573.56093
191.056	65525.47589
191.264	65564.39578
191.472	65589.60687
191.679	65605.66166
191.887	65598.77995
192.095	65681.46887
192.303	65562.10494
192.511	65612.54501
192.719	65688.37036
192.926	65532.34036
193.134	65688.37036
193.342	65617.13482
193.55	65596.48641
193.757	65589.60687
193.965	65566.6868
194.173	65550.65345
194.38	65656.17763
194.588	65630.9086
194.796	65610.25038
195.003	65534.62887
195.211	65630.9086
195.418	65612.54501
195.626	65679.16875
195.833	65573.56093
196.041	65530.05203
196.248	65589.60687
196.456	65532.34036
196.663	65488.89239
196.871	65619.42999
197.078	65571.26937
197.285	65596.48641
197.493	65571.26937
197.7	65452.35403
197.908	65564.39578
198.115	65605.66166
198.322	65575.85266
198.529	65646.98633
198.737	65665.37187
198.944	65571.26937
199.151	65663.07303
199.358	65628.61252
199.566	65706.78248
199.773	65498.03402
199.98	65594.19305
200.187	65624.02089
200.394	65587.31405
200.601	65466.05065
200.809	65676.86881
201.016	65564.39578
201.223	65557.52381
201.43	65672.26948
201.637	65614.83982
201.844	65619.42999
202.051	65692.97228
202.258	65568.978
202.465	65610.25038
202.672	65681.46887
202.878	65587.31405
203.085	65614.83982
203.292	65568.978
203.499	65539.20643
203.706	65587.31405
203.913	65585.02141
204.12	65646.98633
204.326	65628.61252
204.533	65640.09478
204.74	65530.05203
204.947	65578.14458
205.153	65589.60687
205.36	65573.56093
205.567	65679.16875
205.773	65672.26948
205.98	65550.65345
206.187	65594.19305
206.393	65585.02141
206.6	65607.95593
206.806	65649.28388
207.013	65523.18809
207.22	65530.05203
207.426	65640.09478
207.633	65580.43668
207.839	65514.03868
208.046	65546.0741
208.252	65548.36369
208.458	65543.7847
208.665	65571.26937
208.871	65610.25038
209.078	65502.60589
209.284	65594.19305
209.49	65605.66166
209.697	65607.95593
209.903	65646.98633
210.109	65612.54501
210.316	65546.0741
210.522	65626.31661
210.728	65564.39578
210.934	65368.02979
211.14	65607.95593
211.347	65667.67089
211.553	65552.94339
211.759	65575.85266
211.965	65530.05203
212.171	65552.94339
212.377	65518.61303
212.583	65580.43668
212.789	65617.13482
212.996	65566.6868
213.202	65532.34036
213.408	65573.56093
213.614	65580.43668
213.82	65628.61252
214.025	65612.54501
214.231	65658.47591
214.437	65617.13482
214.643	65514.03868
214.849	65578.14458
215.055	65585.02141
215.261	65642.39178
215.467	65575.85266
215.672	65656.17763
215.878	65516.32576
216.084	65635.50132
216.29	65575.85266
216.496	65500.31987
216.701	65543.7847
216.907	65637.79796
217.113	65578.14458
217.318	65509.46503
217.524	65621.72535
217.73	65633.20487
217.935	65601.07367
218.141	65548.36369
218.346	65566.6868
218.552	65598.77995
218.758	65566.6868
218.963	65555.23351
219.169	65564.39578
219.374	65575.85266
219.58	65575.85266
219.785	65596.48641
219.991	65523.18809
220.196	65676.86881
220.401	65610.25038
220.607	65580.43668
220.812	65495.74835
221.017	65585.02141
221.223	65532.34036
221.428	65507.17847
221.633	65527.76387
221.839	65575.85266
222.044	65635.50132
222.249	65566.6868
222.454	65559.81429
222.66	65562.10494
222.865	65607.95593
223.07	65461.48441
223.275	65582.72895
223.48	65550.65345
223.686	65635.50132
223.891	65665.37187
224.096	65658.47591
224.301	65475.18524
224.506	65630.9086
224.711	65536.91756
224.916	65617.13482
225.121	65610.25038
225.326	65607.95593
225.531	65635.50132
225.736	65614.83982
225.941	65644.68896
226.146	65594.19305
226.351	65564.39578
226.555	65562.10494
226.76	65557.52381
226.965	65660.77438
227.17	65603.36758
227.375	65626.31661
227.58	65610.25038
227.784	65541.49547
227.989	65699.87655
228.194	65621.72535
228.399	65550.65345
228.603	65642.39178
228.808	65617.13482
229.013	65527.76387
229.217	65580.43668
229.422	65633.20487
229.627	65594.19305
229.831	65614.83982
230.036	65546.0741
230.24	65573.56093
230.445	65550.65345
230.649	65573.56093
230.854	65564.39578
231.058	65603.36758
231.263	65591.89987
231.467	65559.81429
231.672	65598.77995
231.876	65580.43668
232.081	65530.05203
232.285	65552.94339
232.489	65550.65345
232.694	65619.42999
232.898	65530.05203
233.102	65486.60743
233.307	65573.56093
233.511	65596.48641
233.715	65548.36369
233.919	65525.47589
234.124	65640.09478
234.328	65679.16875
234.532	65575.85266
234.736	65536.91756
234.94	65630.9086
235.145	65571.26937
235.349	65559.81429
235.553	65466.05065
235.757	65475.18524
235.961	65633.20487
236.165	65626.31661
236.369	65541.49547
236.573	65543.7847
236.777	65640.09478
236.981	65566.6868
237.185	65502.60589
237.389	65601.07367
237.593	65580.43668
237.797	65550.65345
238.001	65546.0741
238.205	65562.10494
238.409	65617.13482
238.612	65621.72535
238.816	65459.20156
239.02	65585.02141
239.224	65598.77995
239.428	65548.36369
239.631	65571.26937
239.835	65555.23351
240.039	65585.02141
240.243	65534.62887
240.446	65509.46503
240.65	65635.50132
240.854	65734.42299
241.057	65559.81429
241.261	65635.50132
241.464	65656.17763
241.668	65532.34036
241.872	65621.72535
242.075	65582.72895
242.279	65571.26937
242.482	65619.42999
242.686	65610.25038
242.889	65518.61303
243.093	65621.72535
243.296	65525.47589
243.499	65582.72895
243.703	65585.02141
243.906	65644.68896
244.11	65555.23351
244.313	65589.60687
244.516	65564.39578
244.72	65525.47589
244.923	65646.98633
245.126	65491.17753
245.33	65562.10494
245.533	65637.79796
245.736	65564.39578
245.939	65601.07367
246.142	65568.978
246.346	65617.13482
246.549	65663.07303
246.752	65621.72535
246.955	65598.77995
247.158	65557.52381
247.361	65603.36758
247.564	65543.7847
247.767	65502.60589
247.971	65585.02141
248.174	65552.94339
248.377	65603.36758
248.58	65663.07303
248.783	65628.61252
248.985	65589.60687
249.188	65603.36758
249.391	65555.23351
249.594	65585.02141
249.797	65633.20487
250	65504.8921
250.203	65601.07367
250.406	65607.95593
250.609	65635.50132
250.811	65612.54501
251.014	65612.54501
251.217	65644.68896
251.42	65628.61252
251.622	65461.48441
251.825	65525.47589
252.028	65612.54501
252.231	65617.13482
252.433	65630.9086
252.636	65523.18809
252.838	65550.65345
253.041	65587.31405
253.244	65536.91756
253.446	65486.60743
253.649	65573.56093
253.851	65530.05203
254.054	65607.95593
254.256	65520.90047
254.459	65612.54501
254.661	65555.23351
254.864	65633.20487
255.066	65429.54031
255.269	65591.89987
255.471	65557.52381
255.673	65541.49547
255.876	65612.54501
256.078	65557.52381
256.281	65568.978
256.483	65585.02141
256.685	65640.09478
256.887	65575.85266
257.09	65566.6868
257.292	65630.9086
257.494	65541.49547
257.696	65601.07367
257.899	65630.9086
258.101	65488.89239
258.303	65562.10494
258.505	65660.77438
258.707	65594.19305
258.909	65621.72535
259.111	65681.46887
259.314	65562.10494
259.516	65612.54501
259.718	65525.47589
259.92	65571.26937
260.122	65598.77995
260.324	65612.54501
260.526	65504.8921
260.728	65568.978
260.93	65550.65345
261.131	65667.67089
261.333	65626.31661
261.535	65589.60687
261.737	65617.13482
261.939	65543.7847
262.141	65580.43668
262.343	65536.91756
262.544	65555.23351
262.746	65555.23351
262.948	65637.79796
263.15	65587.31405
263.352	65516.32576
263.553	65585.02141
263.755	65637.79796
263.957	65511.75176
264.158	65548.36369
264.36	65571.26937
264.562	65534.62887
264.763	65621.72535
264.965	65552.94339
265.166	65605.66166
265.368	65509.46503
265.569	65614.83982
265.771	65610.25038
265.972	65546.0741
266.174	65614.83982
266.375	65601.07367
266.577	65587.31405
266.778	65555.23351
266.98	65585.02141
267.181	65635.50132
267.383	65656.17763
267.584	65507.17847
267.785	65591.89987
267.987	65612.54501
268.188	65660.77438
268.389	65546.0741
268.591	65656.17763
268.792	65653.87953
268.993	65557.52381
269.194	65612.54501
269.396	65520.90047
269.597	65573.56093
269.798	65624.02089
269.999	65571.26937
270.2	65653.87953
270.401	65516.32576
270.603	65614.83982
270.804	65630.9086
271.005	65633.20487
271.206	65585.02141
271.407	65557.52381
271.608	65511.75176
271.809	65589.60687
272.01	65575.85266
272.211	65603.36758
272.412	65541.49547
272.613	65534.62887
272.814	65637.79796
273.015	65610.25038
273.216	65630.9086
273.416	65605.66166
273.617	65530.05203
273.818	65555.23351
274.019	65598.77995
274.22	65539.20643
274.421	65568.978
274.621	65605.66166
274.822	65571.26937
275.023	65575.85266
275.224	65582.72895
275.424	65665.37187
275.625	65697.57494
275.826	65591.89987
276.026	65635.50132
276.227	65598.77995
276.428	65550.65345
276.628	65543.7847
276.829	65546.0741
277.029	65598.77995
277.23	65575.85266
277.43	65552.94339
277.631	65509.46503
277.831	65667.67089
278.032	65644.68896
278.232	65598.77995
278.433	65614.83982
278.633	65507.17847
278.834	65617.13482
279.034	65546.0741
279.234	65516.32576
279.435	65587.31405
279.635	65566.6868
279.835	65594.19305
280.036	65504.8921
280.236	65679.16875
280.436	65614.83982
280.637	65587.31405
280.837	65520.90047
281.037	65591.89987
281.237	65591.89987
281.438	65605.66166
281.638	65614.83982
281.838	65610.25038
282.038	65610.25038
282.238	65587.31405
282.438	65596.48641
282.638	65594.19305
282.838	65612.54501
283.038	65566.6868
283.239	65607.95593
283.439	65589.60687
283.639	65493.46285
283.839	65624.02089
284.039	65564.39578
284.238	65589.60687
284.438	65546.0741
284.638	65640.09478
284.838	65617.13482
285.038	65619.42999
285.238	65642.39178
285.438	65582.72895
285.638	65580.43668
285.838	65585.02141
286.037	65550.65345
286.237	65624.02089
286.437	65630.9086
286.637	65607.95593
286.836	65605.66166
287.036	65656.17763
287.236	65552.94339
287.436	65640.09478
287.635	65575.85266
287.835	65585.02141
288.034	65589.60687
288.234	65495.74835
288.434	65562.10494
288.633	65598.77995
288.833	65633.20487
289.032	65688.37036
289.232	65575.85266
289.431	65575.85266
289.631	65612.54501
289.83	65507.17847
290.03	65635.50132
290.229	65624.02089
290.429	65695.27352
290.628	65525.47589
290.828	65658.47591
291.027	65681.46887
291.226	65607.95593
291.426	65568.978
291.625	65452.35403
291.824	65603.36758
292.024	65603.36758
292.223	65635.50132
292.422	65594.19305
292.621	65612.54501
292.821	65559.81429
293.02	65598.77995
293.219	65527.76387
293.418	65633.20487
293.617	65539.20643
293.817	65626.31661
294.016	65498.03402
294.215	65530.05203
294.414	65672.26948
294.613	65607.95593
294.812	65594.19305
295.011	65621.72535
295.21	65571.26937
295.409	65660.77438
295.608	65706.78248
295.807	65626.31661
296.006	65562.10494
296.205	65596.48641
296.404	65461.48441
296.603	65614.83982
296.802	65500.31987
297.001	65624.02089
297.2	65621.72535
297.398	65640.09478
297.597	65527.76387
297.796	65665.37187
297.995	65649.28388
298.194	65546.0741
298.392	65610.25038
298.591	65603.36758
298.79	65646.98633
298.988	65614.83982
299.187	65610.25038
299.386	65580.43668
299.585	65598.77995
299.783	65582.72895
299.982	65518.61303
300.18	65617.13482
300.379	65605.66166
300.578	65607.95593
300.776	65665.37187
300.975	65571.26937
301.173	65514.03868
301.372	65598.77995
301.57	65617.13482
301.769	65621.72535
301.967	65550.65345
302.166	65598.77995
302.364	65642.39178
302.562	65594.19305
302.761	65548.36369
302.959	65603.36758
303.157	65557.52381
303.356	65630.9086
303.554	65539.20643
303.752	65598.77995
303.951	65564.39578
304.149	65477.46932
304.347	65571.26937
304.546	65541.49547
304.744	65578.14458
304.942	65562.10494
305.14	65630.9086
305.338	65656.17763
305.536	65607.95593
305.735	65610.25038
305.933	65617.13482
306.131	65626.31661
306.329	65539.20643
306.527	65656.17763
306.725	65603.36758
306.923	65550.65345
307.121	65493.46285
307.319	65628.61252
307.517	65630.9086
307.715	65580.43668
307.913	65470.61759
308.111	65557.52381
308.309	65573.56093
308.507	65605.66166
308.705	65594.19305
308.903	65649.28388
309.1	65530.05203
309.298	65534.62887
309.496	65575.85266
309.694	65612.54501
309.892	65637.79796
310.089	65644.68896
310.287	65594.19305
310.485	65624.02089
310.683	65580.43668
310.88	65598.77995
311.078	65605.66166
311.276	65541.49547
311.473	65591.89987
311.671	65582.72895
311.869	65539.20643
312.066	65589.60687
312.264	65587.31405
312.461	65509.46503
312.659	65530.05203
312.856	65541.49547
313.054	65619.42999
313.251	65614.83982
313.449	65527.76387
313.646	65596.48641
313.844	65640.09478
314.041	65596.48641
314.239	65525.47589
314.436	65516.32576
314.634	65484.32264
314.831	65541.49547
315.028	65663.07303
315.226	65596.48641
315.423	65525.47589
315.62	65630.9086
315.817	65578.14458
316.015	65470.61759
316.212	65626.31661
316.409	65546.0741
316.606	65562.10494
316.804	65607.95593
317.001	65642.39178
317.198	65543.7847
317.395	65543.7847
317.592	65543.7847
317.789	65594.19305
317.987	65571.26937
318.184	65624.02089
318.381	65660.77438
318.578	65546.0741
318.775	65656.17763
318.972	65651.58161
319.169	65649.28388
319.366	65541.49547
319.563	65578.14458
319.76	65617.13482
319.957	65607.95593
320.154	65621.72535
320.351	65539.20643
320.547	65562.10494
320.744	65601.07367
320.941	65479.75359
321.138	65594.19305
321.335	65580.43668
321.532	65628.61252
321.728	65548.36369
321.925	65646.98633
322.122	65468.33404
322.319	65695.27352
322.515	65539.20643
322.712	65552.94339
322.909	65665.37187
323.105	65669.97009
323.302	65530.05203
323.499	65509.46503
323.695	65557.52381
323.892	65587.31405
324.089	65543.7847
324.285	65610.25038
324.482	65619.42999
324.678	65669.97009
324.875	65624.02089
325.071	65573.56093
325.268	65578.14458
325.464	65603.36758
325.661	65582.72895
325.857	65596.48641
326.054	65630.9086
326.25	65557.52381
326.446	65555.23351
326.643	65575.85266
326.839	65598.77995
327.035	65679.16875
327.232	65530.05203
327.428	65674.56905
327.624	65667.67089
327.821	65585.02141
328.017	65644.68896
328.213	65621.72535
328.409	65585.02141
328.606	65564.39578
328.802	65566.6868
328.998	65601.07367
329.194	65663.07303
329.39	65541.49547
329.586	65585.02141
329.783	65546.0741
329.979	65573.56093
330.175	65603.36758
330.371	65585.02141
330.567	65601.07367
330.763	65573.56093
330.959	65637.79796
331.155	65610.25038
331.351	65619.42999
331.547	65555.23351
331.743	65695.27352
331.939	65591.89987
332.135	65619.42999
332.33	65518.61303
332.526	65582.72895
332.722	65566.6868
332.918	65534.62887
333.114	65637.79796
333.31	65482.03802
333.506	65509.46503
333.701	65587.31405
333.897	65697.57494
334.093	65543.7847
334.289	65649.28388
334.484	65484.32264
334.68	65500.31987
334.876	65527.76387
335.071	65594.19305
335.267	65523.18809
335.463	65605.66166
335.658	65603.36758
335.854	65713.69009
336.049	65589.60687
336.245	65619.42999
336.441	65614.83982
336.636	65566.6868
336.832	65548.36369
337.027	65466.05065
337.223	65653.87953
337.418	65511.75176
337.613	65644.68896
337.809	65562.10494
338.004	65637.79796
338.2	65580.43668
338.395	65630.9086
338.591	65536.91756
338.786	65644.68896
338.981	65640.09478
339.177	65649.28388
339.372	65575.85266
339.567	65516.32576
339.762	65548.36369
339.958	65715.993
340.153	65674.56905
340.348	65046.54135
340.543	65596.48641
340.739	65640.09478
340.934	65610.25038
341.129	65557.52381
341.324	65557.52381
341.519	65665.37187
341.714	65729.81437
341.909	65644.68896
342.104	65585.02141
342.299	65594.19305
342.495	65617.13482
342.69	65635.50132
342.885	65621.72535
343.08	65336.1847
343.275	65502.60589
343.469	65605.66166
343.664	65550.65345
343.859	65594.19305
344.054	65656.17763
344.249	65637.79796
344.444	65582.72895
344.639	65617.13482
344.834	65642.39178
345.029	65589.60687
345.223	65564.39578
345.418	65644.68896
345.613	65575.85266
345.808	65594.19305
346.003	65598.77995
346.197	65594.19305
346.392	65578.14458
346.587	65482.03802
346.781	65607.95593
346.976	65566.6868
347.171	65511.75176
347.365	65617.13482
347.56	65614.83982
347.755	65536.91756
347.949	65612.54501
348.144	65642.39178
348.338	65580.43668
348.533	65575.85266
348.727	65626.31661
348.922	65543.7847
349.116	65658.47591
349.311	65587.31405
349.505	65658.47591
349.7	65642.39178
349.894	65630.9086
350.089	65566.6868
350.283	65601.07367
350.477	65585.02141
350.672	65603.36758
350.866	65525.47589
351.06	65580.43668
351.255	65585.02141
351.449	65589.60687
351.643	65589.60687
351.837	65546.0741
352.032	65686.06968
352.226	65635.50132
352.42	65640.09478
352.614	65523.18809
352.809	65626.31661
353.003	65582.72895
353.197	65568.978
353.391	65605.66166
353.585	65571.26937
353.779	65667.67089
353.973	65523.18809
354.167	65559.81429
354.361	65646.98633
354.555	65534.62887
354.749	65603.36758
354.943	65626.31661
355.137	65562.10494
355.331	65610.25038
355.525	65624.02089
355.719	65562.10494
355.913	65601.07367
356.107	65573.56093
356.301	65603.36758
356.495	65598.77995
356.689	65589.60687
356.883	65562.10494
357.076	65658.47591
357.27	65527.76387
357.464	65624.02089
357.658	65525.47589
357.852	65596.48641
358.045	65564.39578
358.239	65637.79796
358.433	65612.54501
358.626	65624.02089
358.82	65596.48641
359.014	65575.85266
359.207	65585.02141
359.401	65676.86881
359.595	65564.39578
359.788	65617.13482
359.982	65589.60687
360.175	65555.23351
360.369	65612.54501
360.563	65585.02141
360.756	65596.48641
360.95	65573.56093
361.143	65683.76919
361.336	65734.42299
361.53	65640.09478
361.723	65626.31661
361.917	65568.978
362.11	65628.61252
362.304	65603.36758
362.497	65594.19305
362.69	65468.33404
362.884	65578.14458
363.077	65617.13482
363.27	65610.25038
363.464	65585.02141
363.657	65626.31661
363.85	65543.7847
364.043	65612.54501
364.237	65585.02141
364.43	65557.52381
364.623	65552.94339
364.816	65642.39178
365.009	65532.34036
365.202	65617.13482
365.396	65516.32576
365.589	65578.14458
365.782	65578.14458
365.975	65658.47591
366.168	65548.36369
366.361	65511.75176
366.554	65594.19305
366.747	65626.31661
366.94	65559.81429
367.133	65598.77995
367.326	65610.25038
367.519	65612.54501
367.712	65720.59938
367.905	65607.95593
368.098	65633.20487
368.291	65491.17753
368.484	65594.19305
368.676	65564.39578
368.869	65665.37187
369.062	65605.66166
369.255	65589.60687
369.448	65552.94339
369.64	65578.14458
369.833	65617.13482
370.026	65543.7847
370.219	65660.77438
370.411	65488.89239
370.604	65674.56905
370.797	65578.14458
370.989	65550.65345
371.182	65667.67089
371.375	65539.20643
371.567	65568.978
371.76	65601.07367
371.952	65669.97009
372.145	65573.56093
372.338	65566.6868
372.53	65575.85266
372.723	65653.87953
372.915	65601.07367
373.108	65628.61252
373.3	65562.10494
373.493	65555.23351
373.685	65552.94339
373.877	65646.98633
374.07	65536.91756
374.262	65527.76387
374.455	65637.79796
374.647	65695.27352
374.839	65530.05203
375.032	65585.02141
375.224	65585.02141
375.416	65644.68896
375.609	65148.06402
375.801	65591.89987
375.993	65637.79796
376.185	65649.28388
376.378	65601.07367
376.57	65580.43668
376.762	65575.85266
376.954	65562.10494
377.146	65548.36369
377.338	65640.09478
377.53	65630.9086
377.723	65546.0741
377.915	65635.50132
378.107	65594.19305
378.299	65626.31661
378.491	65621.72535
378.683	65575.85266
378.875	65617.13482
379.067	65527.76387
379.259	65555.23351
379.451	65603.36758
379.643	65539.20643
379.835	65568.978
380.027	65523.18809
380.219	65635.50132
380.41	65589.60687
380.602	65582.72895
380.794	65681.46887
380.986	65626.31661
381.178	65596.48641
381.37	65603.36758
381.561	65587.31405
381.753	65504.8921
381.945	65518.61303
382.137	65585.02141
382.328	65614.83982
382.52	65626.31661
382.712	65619.42999
382.903	65523.18809
383.095	65605.66166
383.287	65651.58161
383.478	65564.39578
383.67	65624.02089
383.862	65582.72895
384.053	65575.85266
384.245	65621.72535
384.436	65552.94339
384.628	65580.43668
384.819	65607.95593
385.011	65548.36369
385.202	65601.07367
385.394	65621.72535
385.585	65495.74835
385.777	65617.13482
385.968	65658.47591
386.159	65594.19305
386.351	65587.31405
386.542	65559.81429
386.734	65511.75176
386.925	65612.54501
387.116	65571.26937
387.308	65575.85266
387.499	65637.79796
387.69	65552.94339
387.881	65511.75176
388.073	65587.31405
388.264	65585.02141
388.455	65672.26948
388.646	65539.20643
388.837	65557.52381
389.029	65580.43668
389.22	65605.66166
389.411	65626.31661
389.602	65582.72895
389.793	65617.13482
389.984	65596.48641
390.175	65566.6868
390.366	65552.94339
390.557	65649.28388
390.748	65589.60687
390.939	65665.37187
391.13	65612.54501
391.321	65575.85266
391.512	65607.95593
391.703	65594.19305
391.894	65621.72535
392.085	65644.68896
392.276	65635.50132
392.467	65649.28388
392.658	65630.9086
392.849	65585.02141
393.039	65614.83982
393.23	65598.77995
393.421	65573.56093
393.612	65589.60687
393.803	65596.48641
393.993	65495.74835
394.184	65559.81429
394.375	65646.98633
394.566	65585.02141
394.756	65573.56093
394.947	65536.91756
395.138	65619.42999
395.328	65523.18809
395.519	65543.7847
395.709	65649.28388
395.9	65491.17753
396.091	65619.42999
396.281	65621.72535
396.472	65614.83982
396.662	65640.09478
396.853	65630.9086
397.043	65612.54501
397.234	65617.13482
397.424	65571.26937
397.615	65571.26937
397.805	65580.43668
397.996	65669.97009
398.186	65534.62887
398.376	65516.32576
398.567	65628.61252
398.757	65598.77995
398.947	65729.81437
399.138	65546.0741
399.328	65534.62887
399.518	65651.58161
399.709	65681.46887
399.899	65594.19305
400.089	65630.9086
400.279	65585.02141
400.47	65591.89987
400.66	65589.60687
400.85	65518.61303
401.04	65555.23351
401.23	65530.05203
401.421	65568.978
401.611	65612.54501
401.801	65552.94339
401.991	65585.02141
402.181	65603.36758
402.371	65571.26937
402.561	65523.18809
402.751	65605.66166
402.941	65557.52381
403.131	65516.32576
403.321	65626.31661
403.511	65575.85266
403.701	65546.0741
403.891	65585.02141
404.081	65582.72895
404.271	65633.20487
404.461	65514.03868
404.651	65642.39178
404.84	65564.39578
405.03	65555.23351
405.22	65630.9086
405.41	65619.42999
405.6	65532.34036
405.789	65536.91756
405.979	65520.90047
406.169	65660.77438
406.359	65594.19305
406.548	65644.68896
406.738	65644.68896
406.928	65518.61303
407.118	65552.94339
407.307	65539.20643
407.497	65587.31405
407.686	65530.05203
407.876	65637.79796
408.066	65617.13482
408.255	65626.31661
408.445	65619.42999
408.634	65546.0741
408.824	65566.6868
409.013	65610.25038
409.203	65532.34036
409.392	65566.6868
409.582	65571.26937
409.771	65665.37187
409.961	65624.02089
410.15	65552.94339
410.34	65564.39578
410.529	65640.09478
410.718	65580.43668
410.908	65452.35403
411.097	65640.09478
411.286	65624.02089
411.476	65653.87953
411.665	65614.83982
411.854	65605.66166
412.044	65649.28388
412.233	65564.39578
412.422	65564.39578
412.611	65582.72895
412.8	65541.49547
412.99	65628.61252
413.179	65548.36369
413.368	65621.72535
413.557	65646.98633
413.746	65598.77995
413.935	65621.72535
414.124	65667.67089
414.313	65532.34036
414.503	65566.6868
414.692	65624.02089
414.881	65511.75176
415.07	65527.76387
415.259	65601.07367
415.448	65525.47589
415.637	65582.72895
415.826	65564.39578
416.015	65656.17763
416.203	65601.07367
416.392	65550.65345
416.581	65612.54501
416.77	65571.26937
416.959	65559.81429
417.148	65619.42999
417.337	65630.9086
417.525	65575.85266
417.714	65557.52381
417.903	65635.50132
418.092	65630.9086
418.281	65564.39578
418.469	65573.56093
418.658	65578.14458
418.847	65607.95593
419.035	65642.39178
419.224	65656.17763
419.413	65633.20487
419.601	65575.85266
419.79	65665.37187
419.979	65601.07367
420.167	65635.50132
420.356	65598.77995
420.544	65562.10494
420.733	65630.9086
420.921	65610.25038
421.11	65562.10494
421.299	65548.36369
421.487	65591.89987
421.675	65587.31405
421.864	65596.48641
422.052	65614.83982
422.241	65495.74835
422.429	65607.95593
422.618	65598.77995
422.806	65575.85266
422.994	65607.95593
423.183	65552.94339
423.371	65607.95593
423.559	65566.6868
423.748	65539.20643
423.936	65612.54501
424.124	65697.57494
424.312	65633.20487
424.501	65575.85266
424.689	65598.77995
424.877	65596.48641
425.065	65594.19305
425.254	65612.54501
425.442	65450.07188
425.63	65518.61303
425.818	65509.46503
426.006	65598.77995
426.194	65504.8921
426.382	65523.18809
426.57	65555.23351
426.758	65571.26937
426.946	65607.95593
427.134	65546.0741
427.323	65624.02089
427.51	65594.19305
427.698	65580.43668
427.886	65550.65345
428.074	65514.03868
428.262	65695.27352
428.45	65585.02141
428.638	65578.14458
428.826	65552.94339
429.014	65626.31661
429.202	65699.87655
429.39	65663.07303
429.577	65523.18809
429.765	65525.47589
429.953	65520.90047
430.141	65596.48641
430.329	65552.94339
430.516	65621.72535
430.704	65461.48441
430.892	65610.25038
431.079	65683.76919
431.267	65525.47589
431.455	65660.77438
431.643	65514.03868
431.83	65562.10494
432.018	65550.65345
432.205	65610.25038
432.393	65658.47591
432.581	65594.19305
432.768	65525.47589
432.956	65530.05203
433.143	65571.26937
433.331	65543.7847
433.518	65610.25038
433.706	65591.89987
433.893	65484.32264
434.081	65617.13482
434.268	65500.31987
434.456	65633.20487
434.643	65621.72535
434.83	65534.62887
435.018	65534.62887
435.205	65617.13482
435.392	65617.13482
435.58	65690.67123
435.767	65532.34036
435.954	65587.31405
436.142	65525.47589
436.329	65626.31661
436.516	65607.95593
436.703	65550.65345
436.891	65511.75176
437.078	65536.91756
437.265	65532.34036
437.452	65541.49547
437.639	65575.85266
437.827	65557.52381
438.014	65539.20643
438.201	65591.89987
438.388	65534.62887
438.575	65585.02141
438.762	65587.31405
438.949	65601.07367
439.136	65546.0741
439.323	65493.46285
439.51	65594.19305
439.697	65516.32576
439.884	65520.90047
440.071	65546.0741
440.258	65518.61303
440.445	65530.05203
440.632	65336.1847
440.819	65539.20643
441.006	65468.33404
441.193	65552.94339
441.38	65516.32576
441.566	65578.14458
441.753	65587.31405
441.94	65520.90047
442.127	65585.02141
442.314	65504.8921
442.5	65482.03802
442.687	65498.03402
442.874	65525.47589
443.061	65532.34036
443.247	65516.32576
443.434	65427.25989
443.621	65594.19305
443.807	65539.20643
443.994	65415.86042
444.181	65552.94339
444.367	65582.72895
444.554	65498.03402
444.74	65523.18809
444.927	65552.94339
445.114	65495.74835
445.3	65370.30572
445.487	65447.78989
445.673	65463.76745
445.86	65493.46285
446.046	65518.61303
446.233	65482.03802
446.419	65514.03868
446.605	65409.02282
446.792	65413.58105
446.978	65552.94339
447.165	65488.89239
447.351	65514.03868
447.537	65527.76387
447.724	65536.91756
447.91	65422.69958
448.096	65447.78989
448.283	65383.9649
448.469	65486.60743
448.655	65470.61759
448.841	65418.13997
449.028	65456.91887
449.214	65443.22645
449.4	65420.41969
449.586	65440.94499
449.773	65413.58105
449.959	65440.94499
450.145	65327.09223
450.331	65456.91887
450.517	65486.60743
450.703	65365.75403
450.889	65459.20156
451.075	65404.46528
451.261	65329.3651
451.447	65322.54702
451.633	65402.18677
451.819	65390.79681
452.005	65320.27466
452.191	65388.51933
452.377	65370.30572
452.563	65347.55411
452.749	65352.10307
452.935	65327.09223
453.121	65288.47943
453.307	65318.00248
453.493	65261.25257
453.679	65302.10191
453.865	65272.59416
454.05	65245.38133
454.236	65290.74942
454.422	65356.6527
454.608	65313.45861
454.794	65333.91133
454.979	65343.00584
455.165	65311.18694
455.351	65252.18229
455.537	65256.7171
455.722	65181.97749
455.908	65263.52055
456.094	65200.0797
456.279	65179.71545
456.465	65145.80442
456.65	65240.84819
456.836	65209.13475
457.022	65197.81635
457.207	65213.66326
457.393	65166.14664
457.578	65218.19243
457.764	65120.95953
457.949	65193.29014
458.135	65132.25024
458.32	65268.05702
458.506	65220.45726
458.691	65184.23969
458.877	65163.88575
459.062	65229.51824
459.248	65236.31572
459.433	65111.92987
459.618	65089.36694
459.804	65186.50206
459.989	65093.87824
460.174	65089.36694
460.36	65116.44438
460.545	65129.99178
460.73	65145.80442
460.915	65134.50887
461.101	65143.54499
461.286	65111.92987
461.471	65129.99178
461.656	65243.11468
461.842	65089.36694
462.027	65118.70188
462.212	65089.36694
462.397	65071.32811
462.582	65102.90277
462.767	65001.52344
462.952	65197.81635
463.138	65082.60118
463.323	65006.0224
463.508	65102.90277
463.693	65062.31252
463.878	65093.87824
464.063	65003.77284
464.248	65039.78464
464.433	65039.78464
464.618	65039.78464
464.803	65035.28097
464.988	65037.53273
465.173	64970.04817
465.357	65010.52199
465.542	65015.02221
465.727	64918.40471
465.912	64967.8011
466.097	65024.02453
466.282	65024.02453
466.467	64967.8011
466.651	64922.89222
466.836	64922.89222
467.021	65080.34625
467.206	64974.54277
467.391	65033.02936
467.575	64994.77617
467.76	64985.78199
467.945	64900.46082
468.129	64931.86907
468.314	64893.73438
468.499	65010.52199
468.683	64882.52669
468.868	64963.30744
469.053	64952.07597
469.237	64936.35841
469.422	64882.52669
469.606	64938.60331
469.791	65001.52344
469.975	64920.64839
470.16	64947.58447
470.344	64911.67461
470.529	64983.53383
470.713	64815.35986
470.898	64976.7903
471.082	64938.60331
471.267	64985.78199
471.451	64970.04817
471.636	65087.11153
471.82	64976.7903
472.004	64846.68752
472.189	64965.55419
472.373	65039.78464
472.557	65021.77371
472.742	65008.27212
472.926	65017.27256
473.11	65028.52663
473.295	64934.11366
473.479	64943.09358
473.663	64952.07597
473.847	65015.02221
474.031	65006.0224
474.216	65001.52344
474.4	65026.2755
474.584	65019.52306
474.768	64981.28583
474.952	64916.16119
475.136	64913.91782
475.32	65046.54135
475.505	64934.11366
475.689	64880.2856
475.873	64954.32196
476.057	64945.33895
476.241	64992.52739
476.425	64918.40471
476.609	64882.52669
476.793	64958.81439
476.977	65028.52663
477.161	64922.89222
477.345	64904.94588
477.529	65021.77371
477.713	64866.84229
477.896	65003.77284
478.08	64848.92634
478.264	64916.16119
478.448	64940.84837
478.632	64871.32279
478.816	65080.34625
478.999	64887.00931
479.183	64970.04817
479.367	64938.60331
479.551	64775.1244
479.735	64878.04467
479.918	64913.91782
480.102	64846.68752
480.286	64884.76792
480.469	64952.07597
480.653	64848.92634
480.837	64864.60227
481.02	64891.49254
481.204	64851.16531
481.388	64822.07046
481.571	64723.78204
481.755	64860.12268
481.938	64851.16531
482.122	64887.00931
482.305	64790.76581
482.489	64708.17146
482.673	64752.79209
482.856	64826.54494
483.04	64819.83345
483.223	64810.88688
483.406	64831.02002
483.59	64826.54494
483.773	64770.65676
483.957	64851.16531
484.14	64741.63145
484.323	64705.94196
484.507	64748.32739
484.69	64781.82698
484.874	64853.40442
485.057	64799.70702
485.24	64755.02466
485.423	64891.49254
485.607	64732.70557
485.79	64790.76581
485.973	64746.09527
486.156	64681.42703
486.34	64697.02542
486.523	64679.19927
486.706	64739.39976
486.889	64810.88688
487.072	64705.94196
487.256	64685.88299
487.439	64746.09527
487.622	64688.11118
487.805	64741.63145
487.988	64712.6309
488.171	64681.42703
488.354	64670.28966
488.537	64734.93682
488.72	64688.11118
488.903	64663.60896
489.086	64717.09092
489.269	64676.97165
489.452	64672.51684
489.635	64621.32782
489.818	64512.52247
490.001	64750.55967
490.184	64710.40111
490.367	64708.17146
490.55	64612.43309
490.732	64505.8718
490.915	64650.25144
491.098	64612.43309
491.281	64737.16822
491.464	64663.60896
491.647	64690.33952
491.829	64697.02542
492.012	64605.76352
492.195	64552.45272
492.378	64641.3493
492.56	64497.00617
492.743	64519.17439
492.926	64490.35839
493.108	64630.22483
493.291	64610.20976
493.474	64472.63703
493.656	64488.14274
493.839	64432.79592
494.022	64499.22237
494.204	64428.37185
494.387	64454.92442
494.569	64592.42822
494.752	64461.56562
494.934	64485.92723
495.117	64472.63703
495.299	64510.30544
495.482	64441.64569
495.664	64395.20853
495.847	64477.06654
496.029	64516.95695
496.212	64265.05662
496.394	64488.14274
496.576	64441.64569
496.759	64534.70038
496.941	64357.65991
497.123	64203.44859
497.306	64510.30544
497.488	64423.94832
497.67	64492.57418
497.853	64485.92723
498.035	64359.86758
498.217	64293.69482
498.4	64364.28333
498.582	64514.73964
498.764	64439.43305
498.946	64368.69962
499.128	64381.95166
499.311	64410.68097
499.493	64503.65519
499.675	64370.90796
499.857	64333.38423
500.039	64295.89868
500.221	64333.38423
500.403	64313.53421
500.585	64212.24357
500.767	64273.86603
500.949	64313.53421
501.132	64337.7968
501.314	64370.90796
501.496	64229.83968
501.678	64443.85847
501.859	64300.30677
502.041	64291.4911
502.223	64291.4911
502.405	64324.56068
502.587	64227.63971
502.769	64251.84639
502.951	64249.64514
503.133	64278.27151
503.315	64333.38423
503.497	64306.9199
503.678	64298.10266
503.86	64386.37008
504.042	64181.47008
504.224	64212.24357
504.406	64271.66348
504.587	64326.76637
504.769	64280.47445
504.951	64256.24928
505.132	64364.28333
505.314	64298.10266
505.496	64260.65269
505.678	64326.76637
505.859	64309.12454
506.041	64260.65269
506.222	64276.06871
506.404	64271.66348
506.586	64284.88072
506.767	64221.0406
506.949	64328.97219
507.13	64278.27151
507.312	64287.08405
507.493	64146.33083
507.675	64262.85459
507.856	64260.65269
508.038	64351.03768
508.219	64328.97219
508.401	64326.76637
508.582	64232.03977
508.764	64269.46106
508.945	64236.44034
509.126	64324.56068
509.308	64306.9199
509.489	64291.4911
509.671	64348.83054
509.852	64256.24928
510.033	64348.83054
510.214	64322.35512
510.396	64362.07539
510.577	64428.37185
510.758	64245.24302
510.94	64256.24928
511.121	64291.4911
511.302	64293.69482
511.483	64328.97219
511.664	64265.05662
511.846	64377.53378
512.027	64295.89868
512.208	64359.86758
512.389	64346.62352
512.57	64262.85459
512.751	64300.30677
512.932	64282.67752
513.113	64192.45774
513.294	64315.73924
513.476	64302.51102
513.657	64335.59045
513.838	64410.68097
514.019	64271.66348
514.2	64351.03768
514.381	64295.89868
514.561	64276.06871
514.742	64373.11643
514.923	64304.71539
515.104	64287.08405
515.285	64331.17815
515.466	64362.07539
515.647	64399.62855
515.828	64254.04777
516.009	64298.10266
516.189	64373.11643
516.37	64408.47022
516.551	64381.95166
516.732	64381.95166
516.913	64346.62352
517.093	64375.32504
517.274	64381.95166
517.455	64223.24018
517.636	64295.89868
517.816	64287.08405
517.997	64311.32931
518.178	64317.9444
518.358	64417.31404
518.539	64344.41664
518.72	64326.76637
518.9	64315.73924
519.081	64328.97219
519.261	64278.27151
519.442	64194.65566
519.622	64311.32931
519.803	64315.73924
519.984	64265.05662
520.164	64342.2099
520.345	64322.35512
520.525	64309.12454
520.705	64364.28333
520.886	64260.65269
521.066	64474.85172
521.247	64331.17815
521.427	64335.59045
521.608	64177.0759
521.788	64362.07539
521.968	64163.89641
522.149	64379.74266
522.329	64302.51102
522.509	64410.68097
522.69	64362.07539
522.87	64390.78904
523.05	64417.31404
523.231	64397.41847
523.411	64357.65991
523.591	64304.71539
523.771	64386.37008
523.951	64300.30677
524.132	64282.67752
524.312	64333.38423
524.492	64362.07539
524.672	64306.9199
524.852	64282.67752
525.032	64344.41664
525.213	64311.32931
525.393	64243.04216
525.573	64419.52533
525.753	64271.66348
525.933	64298.10266
526.113	64304.71539
526.293	64408.47022
526.473	64377.53378
526.653	64232.03977
526.833	64368.69962
527.013	64426.16002
527.193	64342.2099
527.373	64357.65991
527.553	64331.17815
527.733	64300.30677
527.913	64388.57949
528.092	64528.04555
528.272	64313.53421
528.452	64370.90796
528.632	64450.49763
528.812	64355.45237
528.992	64304.71539
529.171	64337.7968
529.351	64432.79592
529.531	64426.16002
529.711	64322.35512
529.89	64423.94832
530.07	64315.73924
530.25	64229.83968
530.43	64234.23999
530.609	64357.65991
530.789	64340.00328
530.969	64328.97219
531.148	64397.41847
531.328	64435.00816
531.507	64388.57949
531.687	64302.51102
531.867	64428.37185
532.046	64287.08405
532.226	64392.99871
532.405	64331.17815
532.585	64353.24496
532.764	64375.32504
532.944	64229.83968
533.123	64357.65991
533.303	64408.47022
533.482	64232.03977
533.662	64384.16081
533.841	64326.76637
534.021	64291.4911
534.2	64379.74266
534.379	64423.94832
534.559	64362.07539
534.738	64322.35512
534.917	64463.77963
535.097	64353.24496
535.276	64348.83054
535.455	64306.9199
535.635	64441.64569
535.814	64386.37008
535.993	64317.9444
536.172	64450.49763
536.352	64412.89186
536.531	64432.79592
536.71	64340.00328
536.889	64359.86758
537.068	64399.62855
537.248	64419.52533
537.427	64282.67752
537.606	64353.24496
537.785	64357.65991
537.964	64373.11643
538.143	64437.22054
538.322	64388.57949
538.501	64355.45237
538.68	64410.68097
538.859	64306.9199
539.038	64446.07139
539.217	64446.07139
539.396	64514.73964
539.575	64370.90796
539.754	64353.24496
539.933	64317.9444
540.112	64539.13763
540.291	64377.53378
540.47	64379.74266
540.649	64381.95166
540.828	64539.13763
541.007	64348.83054
541.186	64457.13802
541.364	64357.65991
541.543	64439.43305
541.722	64395.20853
541.901	64432.79592
542.08	64282.67752
542.258	64320.1497
542.437	64463.77963
542.616	64328.97219
542.795	64483.71185
542.973	64439.43305
543.152	64448.28444
543.331	64426.16002
543.509	64472.63703
543.688	64353.24496
543.867	64450.49763
544.045	64463.77963
544.224	64313.53421
544.402	64054.24283
544.581	64417.31404
544.76	64514.73964
544.938	64408.47022
545.117	64377.53378
545.295	64426.16002
545.474	64423.94832
545.652	64499.22237
545.831	64450.49763
546.009	64320.1497
546.188	64423.94832
546.366	64437.22054
546.544	64415.10288
546.723	64410.68097
546.901	64404.04912
547.08	64346.62352
547.258	64457.13802
547.436	64454.92442
547.615	64503.65519
547.793	64430.58382
547.971	64412.89186
548.15	64428.37185
548.328	64375.32504
548.506	64313.53421
548.684	64287.08405
548.863	64448.28444
549.041	64479.28151
549.219	64536.91894
549.397	64399.62855
549.576	64450.49763
549.754	64408.47022
549.932	64435.00816
550.11	64477.06654
550.288	64512.52247
550.466	64599.09524
550.644	64375.32504
550.822	64472.63703
551.001	64512.52247
551.179	64565.77283
551.357	64501.43871
551.535	64443.85847
551.713	64503.65519
551.891	64508.08855
552.069	64552.45272
552.247	64512.52247
552.425	64548.0138
552.603	64548.0138
552.781	64525.82756
552.958	64556.8922
553.136	64534.70038
553.314	64650.25144
553.492	64605.76352
553.67	64632.44944
553.848	64645.80008
554.026	64743.86328
554.204	64726.0127
554.381	64665.83571
554.559	64728.24351
554.737	64801.94269
554.915	64734.93682
555.092	64692.56801
555.27	64766.18971
555.448	64728.24351
555.626	64779.59264
555.803	64866.84229
555.981	64694.79664
556.159	64824.30763
556.336	64833.25779
556.514	64895.97637
556.692	64851.16531
556.869	64824.30763
557.047	64819.83345
557.224	64851.16531
557.402	64866.84229
557.58	64790.76581
557.757	64904.94588
557.935	65003.77284
558.112	64909.43154
558.29	64898.21852
558.467	65003.77284
558.645	65006.0224
558.822	65019.52306
559	64992.52739
559.177	64967.8011
559.354	64943.09358
559.532	64949.83014
559.709	64981.28583
559.887	64943.09358
560.064	65044.28895
560.241	64920.64839
560.419	64940.84837
560.596	64920.64839
560.773	64913.91782
560.951	64895.97637
561.128	64779.59264
561.305	65008.27212
561.482	64949.83014
561.66	64898.21852
561.837	64893.73438
562.014	64943.09358
562.191	65017.27256
562.368	64963.30744
562.546	64895.97637
562.723	64997.0251
562.9	64965.55419
563.077	64891.49254
563.254	64988.0303
563.431	64956.56809
563.608	64869.08246
563.785	64985.78199
563.962	64925.1362
564.139	65015.02221
564.317	64898.21852
564.494	65030.77792
564.671	64833.25779
564.848	64929.62462
565.025	64981.28583
565.201	65008.27212
565.378	64938.60331
565.555	64936.35841
565.732	64972.29539
565.909	64981.28583
566.086	64963.30744
566.263	65012.77202
566.44	64967.8011
566.617	65008.27212
566.794	64929.62462
566.97	64992.52739
567.147	65062.31252
567.324	64965.55419
567.501	65026.2755
567.678	64963.30744
567.854	64985.78199
568.031	65096.13414
568.208	64965.55419
568.384	65030.77792
568.561	65006.0224
568.738	65030.77792
568.915	65008.27212
569.091	65082.60118
569.268	65042.03672
569.444	65091.62251
569.621	65062.31252
569.798	65089.36694
569.974	65033.02936
570.151	65028.52663
570.327	65044.28895
570.504	65017.27256
570.681	65111.92987
570.857	65080.34625
571.034	65089.36694
571.21	65039.78464
571.387	65186.50206
571.563	65159.36444
571.739	64997.0251
571.916	65209.13475
572.092	65134.50887
572.269	65082.60118
572.445	65096.13414
572.622	65143.54499
572.798	65082.60118
572.974	65136.76765
573.151	65193.29014
573.327	65134.50887
573.503	65033.02936
573.68	65195.55317
573.856	65188.76459
574.032	65193.29014
574.208	65073.58241
574.385	65098.39019
574.561	65211.39892
574.737	65184.23969
574.913	65080.34625
575.089	65184.23969
575.266	65188.76459
575.442	65200.0797
575.618	65039.78464
575.794	65161.62501
575.97	65170.66893
576.146	65100.6464
576.322	65166.14664
576.499	65057.80568
576.675	65075.83686
576.851	65078.09148
577.027	65001.52344
577.203	65134.50887
577.379	65175.19186
577.555	65129.99178
577.731	65084.85628
577.907	64759.49024
578.083	65039.78464
578.259	65111.92987
578.435	65087.11153
578.611	64967.8011
578.786	64983.53383
578.962	65035.28097
579.138	65148.06402
579.314	65039.78464
579.49	65111.92987
579.666	65015.02221
579.842	65091.62251
580.017	65091.62251
580.193	65078.09148
580.369	65026.2755
580.545	65051.0466
580.72	64956.56809
580.896	65087.11153
581.072	64976.7903
581.248	65024.02453
581.423	64952.07597
581.599	65055.5525
581.775	65015.02221
581.95	65017.27256
582.126	65044.28895
582.302	64947.58447
582.477	65010.52199
582.653	65071.32811
582.829	65055.5525
583.004	65145.80442
583.18	65042.03672
583.355	65080.34625
583.531	65010.52199
583.706	64988.0303
583.882	65080.34625
584.057	65163.88575
584.233	65026.2755
584.408	64927.38033
584.584	65046.54135
584.759	65109.67285
584.935	65109.67285
585.11	65096.13414
585.285	65129.99178
585.461	65202.34322
585.636	65102.90277
585.812	65120.95953
585.987	65188.76459
586.162	65175.19186
586.338	65116.44438
586.513	65211.39892
586.688	65272.59416
586.863	65150.32378
587.039	65206.87074
587.214	65181.97749
587.389	65177.45358
587.564	65218.19243
587.74	65175.19186
587.915	65343.00584
588.09	65288.47943
588.265	65224.98742
588.44	65302.10191
588.615	65286.2096
588.791	65274.86298
588.966	65329.3651
589.141	65347.55411
589.316	65268.05702
589.491	65281.67045
589.666	65252.18229
589.841	65215.92776
590.016	65327.09223
590.191	65243.11468
590.366	65374.85809
590.541	65393.07446
590.716	65343.00584
590.891	65320.27466
591.066	65415.86042
591.241	65390.79681
591.416	65409.02282
591.591	65397.63027
591.766	65397.63027
591.941	65511.75176
592.116	65525.47589
592.29	65406.74396
592.465	65454.63637
592.64	65568.978
592.815	65502.60589
592.99	65552.94339
593.165	65511.75176
593.339	65534.62887
593.514	65504.8921
593.689	65427.25989
593.864	65509.46503
594.038	65536.91756
594.213	65429.54031
594.388	65511.75176
594.562	65488.89239
594.737	65427.25989
594.912	65507.17847
595.086	65564.39578
595.261	65516.32576
595.436	65445.50808
595.61	65466.05065
595.785	65459.20156
595.959	65454.63637
596.134	65495.74835
596.309	65493.46285
596.483	65500.31987
596.658	65488.89239
596.832	65516.32576
597.007	65390.79681
597.181	65548.36369
597.356	65463.76745
597.53	65552.94339
597.704	65525.47589
597.879	65484.32264
598.053	65488.89239
598.228	65402.18677
598.402	65399.90843
598.576	65500.31987
598.751	65415.86042
598.925	65475.18524
599.1	65475.18524
599.274	65520.90047
599.448	65486.60743
599.622	65393.07446
599.797	65470.61759
599.971	65470.61759
600.145	65347.55411
600.32	65443.22645
600.494	65468.33404
600.668	65420.41969
600.842	65409.02282
601.016	65518.61303
601.191	65420.41969
601.365	65211.39892
601.539	65440.94499
601.713	65475.18524
601.887	65383.9649
602.061	65500.31987
602.235	65422.69958
602.409	65493.46285
602.583	65431.8209
602.758	65555.23351
602.932	65493.46285
603.106	65557.52381
603.28	65507.17847
603.454	65461.48441
603.628	65415.86042
603.802	65511.75176
603.976	65495.74835
604.149	65477.46932
604.323	65431.8209
604.497	65509.46503
604.671	65427.25989
604.845	65461.48441
605.019	65500.31987
605.193	65511.75176
605.367	65424.97965
605.541	65456.91887
605.714	65402.18677
605.888	65411.30184
606.062	65482.03802
606.236	65585.02141
606.41	65368.02979
606.583	65493.46285
606.757	65516.32576
606.931	65461.48441
607.105	65495.74835
607.278	65500.31987
607.452	65546.0741
607.626	65411.30184
607.799	65495.74835
607.973	65514.03868
608.147	65454.63637
608.32	65511.75176
608.494	65466.05065
608.668	65493.46285
608.841	65393.07446
609.015	65404.46528
609.188	65456.91887
609.362	65566.6868
609.535	65479.75359
609.709	65504.8921
609.882	65468.33404
610.056	65440.94499
610.229	65470.61759
610.403	65472.90133
610.576	65368.02979
610.75	65440.94499
610.923	65470.61759
611.097	65527.76387
611.27	65395.35228
611.443	65461.48441
611.617	65562.10494
611.79	65566.6868
611.963	65459.20156
612.137	65470.61759
612.31	65466.05065
612.483	65493.46285
612.657	65477.46932
612.83	65534.62887
613.003	65532.34036
613.177	65493.46285
613.35	65511.75176
613.523	65470.61759
613.696	65447.78989
613.869	65585.02141
614.043	65422.69958
614.216	65470.61759
614.389	65509.46503
614.562	65431.8209
614.735	65486.60743
614.908	65495.74835
615.082	65429.54031
615.255	65475.18524
615.428	65438.66371
615.601	65516.32576
615.774	65488.89239
615.947	65443.22645
616.12	65347.55411
616.293	65383.9649
616.466	65397.63027
616.639	65415.86042
616.812	65447.78989
616.985	65365.75403
617.158	65445.50808
617.331	65463.76745
617.504	65443.22645
617.677	65520.90047
617.85	65475.18524
618.022	65488.89239
618.195	65470.61759
618.368	65406.74396
618.541	65393.07446
618.714	65472.90133
618.887	65461.48441
619.059	65427.25989
619.232	65470.61759
619.405	65313.45861
619.578	65343.00584
619.751	65452.35403
619.923	65429.54031
620.096	65361.20303
620.269	65381.68794
620.441	65431.8209
620.614	65472.90133
620.787	65399.90843
620.96	65413.58105
621.132	65318.00248
621.305	65290.74942
621.477	65347.55411
621.65	65434.10166
621.823	65447.78989
621.995	65343.00584
622.168	65352.10307
622.34	65354.3778
622.513	65365.75403
622.685	65361.20303
622.858	65343.00584
623.03	65402.18677
623.203	65429.54031
623.375	65381.68794
623.548	65422.69958
623.72	65354.3778
623.893	65356.6527
624.065	65379.41115
624.238	65372.58182
624.41	65472.90133
624.582	65311.18694
624.755	65388.51933
624.927	65365.75403
625.1	65358.92778
625.272	65431.8209
625.444	65324.81954
625.617	65238.58187
625.789	65315.73046
625.961	65377.13454
626.133	65313.45861
626.306	65299.83108
626.478	65299.83108
626.65	65283.93994
626.822	65365.75403
626.995	65263.52055
627.167	65274.86298
627.339	65345.27989
627.511	65236.31572
627.683	65274.86298
627.855	65245.38133
628.027	65324.81954
628.2	65258.98475
628.372	65283.93994
628.544	65286.2096
628.716	65283.93994
628.888	65261.25257
629.06	65197.81635
629.232	65361.20303
629.404	65286.2096
629.576	65202.34322
629.748	65302.10191
629.92	65163.88575
630.092	65152.5837
630.264	65249.91514
630.436	65327.09223
630.608	65258.98475
630.78	65254.44961
630.952	65297.56041
631.124	65220.45726
631.295	65243.11468
631.467	65295.28991
631.639	65211.39892
631.811	65290.74942
631.983	65270.32551
632.155	65270.32551
632.326	65265.7887
632.498	65261.25257
632.67	65270.32551
632.842	65304.37291
633.014	65249.91514
633.185	65193.29014
633.357	65281.67045
633.529	65154.84379
633.7	65188.76459
633.872	65304.37291
634.044	65306.64409
634.215	65195.55317
634.387	65270.32551
634.559	65347.55411
634.73	65290.74942
634.902	65338.45824
635.074	65274.86298
635.245	65265.7887
635.417	65288.47943
635.588	65202.34322
635.76	65347.55411
635.931	65333.91133
636.103	65347.55411
636.274	65243.11468
636.446	65295.28991
636.617	65229.51824
636.789	65322.54702
636.96	65315.73046
637.132	65336.1847
637.303	65324.81954
637.474	65356.6527
637.646	65274.86298
637.817	65349.8285
637.989	65302.10191
638.16	65361.20303
638.331	65383.9649
638.503	65247.64815
638.674	65279.40113
638.845	65383.9649
639.017	65295.28991
639.188	65297.56041
639.359	65386.24203
639.53	65372.58182
639.702	65302.10191
639.873	65381.68794
640.044	65345.27989
640.215	65356.6527
640.387	65256.7171
640.558	65238.58187
640.729	65211.39892
640.9	65240.84819
641.071	65252.18229
641.242	65256.7171
641.413	65268.05702
641.585	65313.45861
641.756	65240.84819
641.927	65368.02979
642.098	65293.01958
642.269	65290.74942
642.44	65356.6527
642.611	65283.93994
642.782	65290.74942
642.953	65200.0797
643.124	65243.11468
643.295	65365.75403
643.466	65231.7839
643.637	65295.28991
643.808	65277.13197
643.979	65209.13475
644.15	65181.97749
644.32	65236.31572
644.491	65254.44961
644.662	65402.18677
644.833	65279.40113
645.004	65245.38133
645.175	65288.47943
645.346	65224.98742
645.516	65318.00248
645.687	65270.32551
645.858	65272.59416
646.029	65222.72226
646.199	65304.37291
646.37	65265.7887
646.541	65329.3651
646.712	65202.34322
646.882	65249.91514
647.053	65281.67045
647.224	65277.13197
647.394	65263.52055
647.565	65268.05702
647.736	65306.64409
647.906	65340.73196
648.077	65268.05702
648.248	65338.45824
648.418	65311.18694
648.589	65354.3778
648.759	65295.28991
648.93	65297.56041
649.1	65356.6527
649.271	65224.98742
649.441	65234.04973
649.612	65306.64409
649.782	65231.7839
649.953	65213.66326
650.123	65265.7887
650.294	65206.87074
650.464	65247.64815
650.635	64954.32196
650.805	65270.32551
650.975	65143.54499
651.146	65306.64409
651.316	65261.25257
651.487	65290.74942
651.657	65293.01958
651.827	65224.98742
651.998	65347.55411
652.168	65234.04973
652.338	65297.56041
652.508	65363.47844
652.679	65286.2096
652.849	65206.87074
653.019	65243.11468
653.189	65238.58187
653.36	65252.18229
653.53	65347.55411
653.7	65254.44961
653.87	65368.02979
654.04	65302.10191
654.211	65320.27466
654.381	65224.98742
654.551	65338.45824
654.721	65247.64815
654.891	65322.54702
655.061	65245.38133
655.231	65356.6527
655.401	65370.30572
655.571	65336.1847
655.741	65254.44961
655.911	65302.10191
656.081	65240.84819
656.251	65372.58182
656.421	65268.05702
656.591	65363.47844
656.761	65279.40113
656.931	65404.46528
657.101	65370.30572
657.271	65315.73046
657.441	65293.01958
657.611	65406.74396
657.781	65297.56041
657.951	65340.73196
658.121	65279.40113
658.291	65274.86298
658.46	65381.68794
658.63	65308.91543
658.8	65336.1847
658.97	65304.37291
659.14	65252.18229
659.309	65331.63813
659.479	65286.2096
659.649	65361.20303
659.819	65277.13197
659.988	65397.63027
660.158	65429.54031
660.328	65308.91543
660.497	65372.58182
660.667	65358.92778
660.837	65308.91543
661.006	65288.47943
661.176	65447.78989
661.346	65338.45824
661.515	65379.41115
661.685	65383.9649
661.854	65340.73196
662.024	65368.02979
662.194	65329.3651
662.363	65318.00248
662.533	65370.30572
662.702	65466.05065
662.872	65415.86042
663.041	65306.64409
663.211	65452.35403
663.38	65509.46503
663.55	65372.58182
663.719	65368.02979
663.889	65491.17753
664.058	65447.78989
664.227	65393.07446
664.397	65379.41115
664.566	65377.13454
664.735	65466.05065
664.905	65427.25989
665.074	65427.25989
665.244	65411.30184
665.413	65475.18524
665.582	65388.51933
665.751	65422.69958
665.921	65424.97965
666.09	65434.10166
666.259	65386.24203
666.428	65429.54031
666.598	65434.10166
666.767	65377.13454
666.936	65386.24203
667.105	65365.75403
667.275	65418.13997
667.444	65415.86042
667.613	65322.54702
667.782	65475.18524
667.951	65379.41115
668.12	65406.74396
668.289	65418.13997
668.458	65370.30572
668.628	65472.90133
668.797	65440.94499
668.966	65456.91887
669.135	65338.45824
669.304	65409.02282
669.473	65409.02282
669.642	65436.3826
669.811	65438.66371
669.98	65390.79681
670.149	65368.02979
670.318	65484.32264
670.487	65452.35403
670.656	65397.63027
670.824	65443.22645
670.993	65493.46285
671.162	65395.35228
671.331	65381.68794
671.5	65445.50808
671.669	65466.05065
671.838	65482.03802
672.007	65415.86042
672.175	65431.8209
672.344	65443.22645
672.513	65302.10191
672.682	65477.46932
672.85	65393.07446
673.019	65361.20303
673.188	65336.1847
673.357	65390.79681
673.525	65482.03802
673.694	65482.03802
673.863	65431.8209
674.032	65393.07446
674.2	65459.20156
674.369	65459.20156
674.537	65402.18677
674.706	65498.03402
674.875	65450.07188
675.043	65429.54031
675.212	65415.86042
675.381	65415.86042
675.549	65470.61759
675.718	65488.89239
675.886	65440.94499
676.055	65511.75176
676.223	65484.32264
676.392	65420.41969
676.56	65434.10166
676.729	65445.50808
676.897	65507.17847
677.066	65470.61759
677.234	65468.33404
677.403	65571.26937
677.571	65475.18524
677.739	65466.05065
677.908	65488.89239
678.076	65440.94499
678.244	65454.63637
678.413	65504.8921
678.581	65436.3826
678.75	65491.17753
678.918	65495.74835
679.086	65479.75359
679.254	65573.56093
679.423	65383.9649
679.591	65479.75359
679.759	65475.18524
679.928	65502.60589
680.096	65454.63637
680.264	65488.89239
680.432	65450.07188
680.6	65477.46932
680.769	65429.54031
680.937	65530.05203
681.105	65429.54031
681.273	65427.25989
681.441	65482.03802
681.609	65374.85809
681.777	65482.03802
681.945	65447.78989
682.114	65504.8921
682.282	65456.91887
682.45	65488.89239
682.618	65516.32576
682.786	65573.56093
682.954	65468.33404
683.122	65297.56041
683.29	65395.35228
683.458	65502.60589
683.626	65498.03402
683.794	65468.33404
683.962	65587.31405
684.13	65413.58105
684.298	65527.76387
684.465	65461.48441
684.633	65516.32576
684.801	65530.05203
684.969	65504.8921
685.137	65424.97965
685.305	65525.47589
685.473	65466.05065
685.64	65525.47589
685.808	65603.36758
685.976	65397.63027
686.144	65552.94339
686.312	65383.9649
686.479	65546.0741
686.647	65536.91756
686.815	65495.74835
686.983	65514.03868
687.15	65477.46932
687.318	65511.75176
687.486	65479.75359
687.653	65466.05065
687.821	65518.61303
687.989	65468.33404
688.156	65559.81429
688.324	65534.62887
688.492	65477.46932
688.659	65621.72535
688.827	65450.07188
688.994	65543.7847
689.162	65525.47589
689.329	65418.13997
689.497	65546.0741
689.665	65587.31405
689.832	65475.18524
690	65456.91887
690.167	65555.23351
690.335	65516.32576
690.502	65539.20643
690.669	65475.18524
690.837	65518.61303
691.004	65427.25989
691.172	65424.97965
691.339	65409.02282
691.507	65578.14458
691.674	65543.7847
691.841	65552.94339
692.009	65591.89987
692.176	65507.17847
692.343	65552.94339
692.511	65514.03868
692.678	65520.90047
692.845	65507.17847
693.013	65562.10494
693.18	65472.90133
693.347	65493.46285
693.514	65596.48641
693.682	65495.74835
693.849	65541.49547
694.016	65520.90047
694.183	65452.35403
694.35	65635.50132
694.518	65548.36369
694.685	65550.65345
694.852	65546.0741
695.019	65640.09478
695.186	65509.46503
695.353	65431.8209
695.52	65486.60743
695.687	65482.03802
695.855	65500.31987
696.022	65498.03402
696.189	65543.7847
696.356	65562.10494
696.523	65612.54501
696.69	65429.54031
696.857	65640.09478
697.024	65468.33404
697.191	65559.81429
697.358	65470.61759
697.525	65452.35403
697.692	65502.60589
697.858	65578.14458
698.025	65486.60743
698.192	65491.17753
698.359	65591.89987
698.526	65502.60589
698.693	65509.46503
698.86	65552.94339
699.027	65532.34036
699.193	65598.77995
699.36	65552.94339
699.527	65564.39578
699.694	65587.31405
699.861	65587.31405
700.027	65429.54031
700.194	65475.18524
700.361	65491.17753
700.528	65482.03802
700.694	65536.91756
700.861	65573.56093
701.028	65504.8921
701.195	65504.8921
701.361	65495.74835
701.528	65543.7847
701.694	65486.60743
701.861	65612.54501
702.028	65413.58105
702.194	65472.90133
702.361	65543.7847
702.528	65541.49547
702.694	65534.62887
702.861	65388.51933
703.027	65502.60589
703.194	65559.81429
703.36	65504.8921
703.527	65603.36758
703.693	65450.07188
703.86	65438.66371
704.026	65527.76387
704.193	65679.16875
704.359	65525.47589
704.526	65575.85266
