Data from Sun spf600_Subt2__1__10-01-59-698.txt Node

Date: Tue Sep 23 10:01:59 EDT 2025
User: brett
Spectrometer: USB4F03499
Trigger mode: 4
Integration Time (sec): 1.000000E-1
Scans to average: 1
Electric dark correction enabled: true
Nonlinearity correction enabled: true
Boxcar width: 0
XAxis mode: Wavelengths
Number of Pixels in Spectrum: 3648
>>>>>Begin Spectral Data<<<<<
0	10.76718
0.225	10.76718
0.449	10.76718
0.674	-46.86637
0.898	-63.03408
1.123	22.11654
1.347	-46.60478
1.572	15.28686
1.796	74.97093
2.021	-7.64584
2.245	-3.04902
2.469	8.40678
2.694	-3.04996
2.918	-0.76449
3.143	-21.42533
3.367	-7.63802
3.591	-30.60761
3.815	143.30484
4.04	5074.8385
4.264	6962.99409
4.488	6807.81653
4.712	6740.96024
4.936	6940.06565
5.161	6936.78568
5.385	7045.72137
5.609	6755.01132
5.833	6774.49114
6.057	7078.60607
6.281	6810.14836
6.505	7244.47692
6.729	6867.42277
6.953	6984.73982
7.177	6872.5702
7.401	7028.97433
7.625	7028.654
7.849	6948.35154
8.073	7054.27896
8.297	7036.56997
8.521	6994.87124
8.744	6892.33699
8.968	7207.92307
9.192	7083.86311
9.416	7102.78501
9.64	7138.02425
9.863	7229.05169
10.087	7244.47692
10.311	7142.51693
10.535	7090.98877
10.758	7202.44876
10.982	7107.14455
11.205	7035.17015
11.429	7145.16756
11.653	7194.56248
11.876	7073.46336
12.1	7343.29625
12.323	7167.07541
12.547	7236.53055
12.77	7401.38984
12.994	7353.85427
13.217	7291.81239
13.441	7431.93752
13.664	7393.28278
13.887	7245.97204
14.111	7307.13866
14.334	7390.35467
14.557	7433.75375
14.781	7577.45675
15.004	7309.20137
15.227	7268.98908
15.451	7383.68563
15.674	7371.75892
15.897	7414.91849
16.12	7630.99789
16.343	7465.73689
16.567	7666.01522
16.79	7591.42628
17.013	7496.69831
17.236	7531.35658
17.459	7460.09024
17.682	7669.99502
17.905	7670.6821
18.128	7754.32818
18.351	7705.89212
18.574	7553.59836
18.797	7925.6081
19.02	7818.40152
19.243	7997.91296
19.466	7709.72347
19.689	7586.42712
19.911	7801.1461
20.134	7917.55978
20.357	7793.05389
20.58	7822.98409
20.803	7919.1096
21.025	7822.1795
21.248	7774.28471
21.471	7896.5247
21.694	8053.9245
21.916	7879.48639
22.139	7967.93408
22.362	7837.54546
22.584	8171.98528
22.807	8090.30785
23.029	7977.63915
23.252	7891.3676
23.475	8159.72394
23.697	8110.12596
23.92	7958.23828
24.142	8088.28665
24.365	8216.00218
24.587	8285.36989
24.809	8193.91267
25.032	8191.25191
25.254	7982.9354
25.477	8394.76781
25.699	8330.89607
25.921	8339.90905
26.144	8506.41651
26.366	8437.55414
26.588	8397.79146
26.81	8546.40517
27.033	8530.16498
27.255	8401.9899
27.477	8568.62901
27.699	8484.92544
27.921	8662.20202
28.144	8444.3824
28.366	8613.81206
28.588	8542.99182
28.81	8768.58913
29.032	8946.62567
29.254	8706.97538
29.476	8606.5519
29.698	8739.26453
29.92	8877.93833
30.142	9165.92041
30.364	8948.17779
30.586	8950.03704
30.808	9021.64395
31.029	9138.4556
31.251	9063.62306
31.473	8966.24989
31.695	9066.35429
31.917	9004.74735
32.139	8877.22039
32.36	9148.90544
32.582	9317.86477
32.804	9040.46655
33.026	9228.60006
33.247	9254.07177
33.469	9230.72466
33.691	9080.93658
33.912	9110.16289
34.134	9377.51433
34.355	9513.46057
34.577	9421.97449
34.798	9666.55012
35.02	9402.33243
35.242	9408.84437
35.463	9568.96194
35.684	9625.14079
35.906	9696.73624
36.127	9779.3263
36.349	9987.94675
36.57	9821.08528
36.792	10102.53137
37.013	10052.16574
37.234	9886.54455
37.456	9945.70131
37.677	9984.12445
37.898	9924.47107
38.119	10082.527
38.341	10219.04018
38.562	10247.57687
38.783	10159.1572
39.004	10020.34678
39.225	10218.14773
39.447	10408.94135
39.668	10461.71924
39.889	10394.77659
40.11	10389.82754
40.331	10527.25905
40.552	10617.20224
40.773	10623.55774
40.994	10607.86257
41.215	10634.73639
41.436	10900.71389
41.657	10573.20181
41.878	10892.63454
42.099	11315.04858
42.32	11169.343
42.54	11021.45565
42.761	11446.14909
42.982	11323.4318
43.203	11250.8716
43.424	11360.49427
43.645	11623.58802
43.865	11692.48674
44.086	11718.28062
44.307	11871.18301
44.527	12008.61729
44.748	12142.54162
44.969	12170.04355
45.189	12361.10274
45.41	12539.53486
45.631	12798.43666
45.851	12689.18718
46.072	13026.86313
46.292	13149.6358
46.513	13210.53454
46.733	13671.34102
46.954	14326.24241
47.174	14549.84018
47.395	14992.57018
47.615	15312.47109
47.836	15710.16676
48.056	16099.19002
48.276	16128.45494
48.497	16752.54521
48.717	17857.77305
48.937	18500.32694
49.158	19925.33387
49.378	21049.01417
49.598	22471.98225
49.818	25055.67326
50.038	27160.92822
50.259	29728.27536
50.479	33212.82257
50.699	37532.2643
50.919	42622.12953
51.139	47551.09603
51.359	53628.22171
51.579	61098.83737
51.799	65242.68274
52.02	65622.99145
52.24	65586.31933
52.46	65627.57871
52.68	65643.63986
52.899	65588.60998
53.119	65613.81909
53.339	65655.11756
53.559	65604.64962
53.779	65524.53906
53.999	65545.11807
54.219	65481.14141
54.439	65666.59982
54.658	65701.07409
54.878	65602.3577
55.098	65641.34486
55.318	65579.44843
55.538	65551.98093
55.757	65602.3577
55.977	65613.81909
56.197	65542.8308
56.416	65616.11191
56.636	65613.81909
56.855	65636.75542
57.075	65551.98093
57.295	65648.23039
57.514	65689.57807
57.734	65586.31933
57.953	65602.3577
58.173	65593.19184
58.392	65629.87262
58.612	65639.05005
58.831	65643.63986
59.051	65581.73855
59.27	65515.39743
59.489	65597.77441
59.709	65611.52645
59.928	65632.1667
60.147	65616.11191
60.367	65641.34486
60.586	65563.4226
60.805	65622.99145
61.024	65604.64962
61.244	65684.98095
61.463	65618.40491
61.682	65595.48304
61.901	65584.02885
62.12	65641.34486
62.34	65604.64962
62.559	65609.23399
62.778	65485.7066
62.997	65629.87262
63.216	65673.49137
63.435	65666.59982
63.654	65515.39743
63.873	65627.57871
64.092	65613.81909
64.311	65554.26891
64.53	65593.19184
64.749	65611.52645
64.968	65600.06597
65.187	65696.47513
65.405	65613.81909
65.624	65609.23399
65.843	65588.60998
66.062	65597.77441
66.281	65561.13391
66.499	65684.98095
66.718	65666.59982
66.937	65584.02885
67.156	65600.06597
67.374	65639.05005
67.593	65501.69028
67.812	65609.23399
68.03	65620.69809
68.249	65668.89682
68.467	65639.05005
68.686	65572.57914
68.905	65561.13391
69.123	65730.98536
69.342	65604.64962
69.56	65634.46097
69.779	65707.97392
69.997	65581.73855
70.216	65622.99145
70.434	65597.77441
70.652	65568.00052
70.871	65613.81909
71.089	65641.34486
71.307	65682.68267
71.526	65590.90082
71.744	65648.23039
71.962	65641.34486
72.181	65645.93503
72.399	65639.05005
72.617	65595.48304
72.835	65579.44843
73.054	65648.23039
73.272	65625.28499
73.49	65636.75542
73.708	65689.57807
73.926	65680.38457
74.144	65675.78892
74.362	65590.90082
74.58	65625.28499
74.798	65622.99145
75.016	65606.94172
75.234	65639.05005
75.452	65613.81909
75.67	65577.15849
75.888	65650.52593
76.106	65551.98093
76.324	65684.98095
76.542	65689.57807
76.76	65609.23399
76.978	65620.69809
77.196	65652.82165
77.413	65579.44843
77.631	65556.55707
77.849	65664.303
78.067	65574.86873
78.284	65572.57914
78.502	65629.87262
78.72	65629.87262
78.938	65684.98095
79.155	65666.59982
79.373	65620.69809
79.59	65666.59982
79.808	65629.87262
80.026	65655.11756
80.243	65639.05005
80.461	65529.11093
80.678	65513.11247
80.896	65572.57914
81.113	65602.3577
81.331	65634.46097
81.548	65428.69181
81.766	65568.00052
81.983	65590.90082
82.2	65641.34486
82.418	65696.47513
82.635	65561.13391
82.852	65465.16875
83.07	65611.52645
83.287	65622.99145
83.504	65588.60998
83.722	65515.39743
83.939	65604.64962
84.156	65508.54306
84.373	65662.00636
84.591	65620.69809
84.808	65606.94172
85.025	65568.00052
85.242	65641.34486
85.459	65600.06597
85.676	65611.52645
85.893	65678.08665
86.11	65593.19184
86.327	65595.48304
86.544	65606.94172
86.761	65636.75542
86.978	65568.00052
87.195	65602.3577
87.412	65712.57472
87.629	65657.41364
87.846	65618.40491
88.063	65533.68351
88.28	65611.52645
88.497	65620.69809
88.713	65650.52593
88.93	65675.78892
89.147	65636.75542
89.364	65577.15849
89.58	65604.64962
89.797	65577.15849
90.014	65606.94172
90.231	65554.26891
90.447	65632.1667
90.664	65577.15849
90.881	65586.31933
91.097	65540.54372
91.314	65547.40551
91.53	65625.28499
91.747	65595.48304
91.963	65659.70991
92.18	65611.52645
92.396	65611.52645
92.613	65597.77441
92.829	65696.47513
93.046	65680.38457
93.262	65671.194
93.479	65579.44843
93.695	65586.31933
93.911	65620.69809
94.128	65671.194
94.344	65533.68351
94.56	65572.57914
94.777	65719.47732
94.993	65650.52593
95.209	65545.11807
95.426	65392.25907
95.642	65673.49137
95.858	65634.46097
96.074	65618.40491
96.29	65684.98095
96.506	65613.81909
96.723	65595.48304
96.939	65666.59982
97.155	65655.11756
97.371	65604.64962
97.587	65636.75542
97.803	65639.05005
98.019	65629.87262
98.235	65572.57914
98.451	65662.00636
98.667	65515.39743
98.883	65652.82165
99.099	65684.98095
99.315	65657.41364
99.53	65597.77441
99.746	65629.87262
99.962	65664.303
100.178	65620.69809
100.394	65622.99145
100.61	65689.57807
100.825	65574.86873
101.041	65652.82165
101.257	65600.06597
101.473	65604.64962
101.688	65586.31933
101.904	65643.63986
102.12	65611.52645
102.335	65597.77441
102.551	65643.63986
102.766	65551.98093
102.982	65629.87262
103.198	65650.52593
103.413	65609.23399
103.629	65641.34486
103.844	65634.46097
104.06	65622.99145
104.275	65570.28974
104.49	65588.60998
104.706	65662.00636
104.921	65025.77923
105.137	65609.23399
105.352	65542.8308
105.567	65622.99145
105.783	65600.06597
105.998	65593.19184
106.213	65574.86873
106.429	65659.70991
106.644	65643.63986
106.859	65602.3577
107.074	65476.57692
107.29	65662.00636
107.505	65627.57871
107.72	65556.55707
107.935	65561.13391
108.15	65593.19184
108.365	65673.49137
108.58	65570.28974
108.795	65563.4226
109.01	65570.28974
109.226	65694.17593
109.441	65456.04535
109.656	65673.49137
109.871	65506.25863
110.085	65574.86873
110.3	65604.64962
110.515	65682.68267
110.73	65519.96789
110.945	65632.1667
111.16	65574.86873
111.375	65579.44843
111.59	65627.57871
111.804	65597.77441
112.019	65600.06597
112.234	65636.75542
112.449	65574.86873
112.663	65613.81909
112.878	65636.75542
113.093	65616.11191
113.308	65529.11093
113.522	65613.81909
113.737	65735.58987
113.951	65584.02885
114.166	65616.11191
114.381	65604.64962
114.595	65627.57871
114.81	65597.77441
115.024	65611.52645
115.239	65584.02885
115.453	65645.93503
115.668	65629.87262
115.882	65577.15849
116.097	65629.87262
116.311	65712.57472
116.525	65604.64962
116.74	65719.47732
116.954	65568.00052
117.169	65616.11191
117.383	65597.77441
117.597	65554.26891
117.811	65613.81909
118.026	65529.11093
118.24	65565.71147
118.454	65618.40491
118.668	65620.69809
118.883	65620.69809
119.097	65602.3577
119.311	65602.3577
119.525	65604.64962
119.739	65609.23399
119.953	65629.87262
120.167	65487.98945
120.381	65639.05005
120.595	65604.64962
120.809	65645.93503
121.023	65590.90082
121.237	65629.87262
121.451	65639.05005
121.665	65634.46097
121.879	65602.3577
122.093	65538.2568
122.307	65710.27423
122.521	65650.52593
122.735	65538.2568
122.949	65634.46097
123.163	65689.57807
123.376	65572.57914
123.59	65551.98093
123.804	65609.23399
124.018	65645.93503
124.231	65657.41364
124.445	65680.38457
124.659	65535.97007
124.872	65517.68257
125.086	65613.81909
125.3	65609.23399
125.513	65590.90082
125.727	65645.93503
125.94	65593.19184
126.154	65613.81909
126.368	65662.00636
126.581	65636.75542
126.795	65645.93503
127.008	65641.34486
127.222	65673.49137
127.435	65662.00636
127.648	65659.70991
127.862	65588.60998
128.075	65652.82165
128.289	65570.28974
128.502	65664.303
128.715	65600.06597
128.929	65714.8754
129.142	65641.34486
129.355	65611.52645
129.568	65549.69314
129.782	65588.60998
129.995	65533.68351
130.208	65634.46097
130.421	65655.11756
130.634	65648.23039
130.848	65570.28974
131.061	65533.68351
131.274	65574.86873
131.487	65673.49137
131.7	65645.93503
131.913	65572.57914
132.126	65618.40491
132.339	65522.25339
132.552	65433.249
132.765	65540.54372
132.978	65618.40491
133.191	65641.34486
133.404	65577.15849
133.617	65636.75542
133.83	65588.60998
134.043	65666.59982
134.255	65691.87691
134.468	65590.90082
134.681	65687.27942
134.894	65728.68338
135.107	65657.41364
135.319	65579.44843
135.532	65606.94172
135.745	65572.57914
135.958	65625.28499
136.17	65698.77452
136.383	65602.3577
136.596	65650.52593
136.808	65622.99145
137.021	65561.13391
137.233	65652.82165
137.446	65595.48304
137.659	65634.46097
137.871	65485.7066
138.084	65625.28499
138.296	65586.31933
138.509	65620.69809
138.721	65655.11756
138.934	65602.3577
139.146	65588.60998
139.358	65648.23039
139.571	65526.82491
139.783	65531.39714
139.996	65606.94172
140.208	65551.98093
140.42	65558.8454
140.632	65586.31933
140.845	65639.05005
141.057	65698.77452
141.269	65645.93503
141.481	65620.69809
141.694	65666.59982
141.906	65600.06597
142.118	65717.17627
142.33	65593.19184
142.542	65673.49137
142.754	65581.73855
142.967	65705.67379
143.179	65659.70991
143.391	65547.40551
143.603	65639.05005
143.815	65535.97007
144.027	65616.11191
144.239	65508.54306
144.451	65606.94172
144.663	65618.40491
144.875	65542.8308
145.086	65510.82768
145.298	65563.4226
145.51	65641.34486
145.722	65545.11807
145.934	65634.46097
146.146	65639.05005
146.358	65622.99145
146.569	65673.49137
146.781	65588.60998
146.993	65671.194
147.205	65524.53906
147.416	65625.28499
147.628	65616.11191
147.84	65574.86873
148.051	65622.99145
148.263	65588.60998
148.475	65662.00636
148.686	65627.57871
148.898	65551.98093
149.109	65535.97007
149.321	65664.303
149.532	65542.8308
149.744	65600.06597
149.955	65577.15849
150.167	65632.1667
150.378	65618.40491
150.59	65648.23039
150.801	65687.27942
151.013	65673.49137
151.224	65535.97007
151.435	65622.99145
151.647	65535.97007
151.858	65590.90082
152.069	65622.99145
152.281	65625.28499
152.492	65595.48304
152.703	65629.87262
152.914	65494.83908
153.126	65590.90082
153.337	65595.48304
153.548	65691.87691
153.759	65586.31933
153.97	65671.194
154.181	65655.11756
154.392	65565.71147
154.604	65682.68267
154.815	65645.93503
155.026	65579.44843
155.237	65622.99145
155.448	65515.39743
155.659	65597.77441
155.87	65604.64962
156.081	65584.02885
156.292	65652.82165
156.502	65684.98095
156.713	65581.73855
156.924	65558.8454
157.135	65602.3577
157.346	65618.40491
157.557	65581.73855
157.768	65648.23039
157.978	65689.57807
158.189	65593.19184
158.4	65655.11756
158.611	65593.19184
158.821	65542.8308
159.032	65632.1667
159.243	65563.4226
159.453	65611.52645
159.664	65611.52645
159.875	65572.57914
160.085	65648.23039
160.296	65572.57914
160.507	65632.1667
160.717	65657.41364
160.928	65570.28974
161.138	65774.75837
161.349	65629.87262
161.559	65696.47513
161.77	65627.57871
161.98	65650.52593
162.19	65577.15849
162.401	65632.1667
162.611	65565.71147
162.822	65639.05005
163.032	65632.1667
163.242	65645.93503
163.453	65565.71147
163.663	65668.89682
163.873	65593.19184
164.084	65655.11756
164.294	65666.59982
164.504	65616.11191
164.714	65597.77441
164.924	65600.06597
165.135	65650.52593
165.345	65570.28974
165.555	65609.23399
165.765	65556.55707
165.975	65565.71147
166.185	65613.81909
166.395	65641.34486
166.605	65682.68267
166.815	65671.194
167.025	65629.87262
167.235	65531.39714
167.445	65728.68338
167.655	65593.19184
167.865	65622.99145
168.075	65606.94172
168.285	65622.99145
168.495	65604.64962
168.705	65540.54372
168.915	65515.39743
169.124	65579.44843
169.334	65581.73855
169.544	65586.31933
169.754	65622.99145
169.964	65577.15849
170.173	65551.98093
170.383	65597.77441
170.593	65604.64962
170.802	65561.13391
171.012	65664.303
171.222	65627.57871
171.431	65668.89682
171.641	65634.46097
171.851	65689.57807
172.06	65648.23039
172.27	65650.52593
172.479	65584.02885
172.689	65645.93503
172.898	65593.19184
173.108	65636.75542
173.317	65570.28974
173.527	65675.78892
173.736	65680.38457
173.945	65606.94172
174.155	65568.00052
174.364	65570.28974
174.574	65606.94172
174.783	65618.40491
174.992	65556.55707
175.202	65616.11191
175.411	65558.8454
175.62	65645.93503
175.829	65659.70991
176.039	65595.48304
176.248	65565.71147
176.457	65618.40491
176.666	65533.68351
176.875	65650.52593
177.084	65579.44843
177.294	65657.41364
177.503	65671.194
177.712	65529.11093
177.921	65652.82165
178.13	65620.69809
178.339	65707.97392
178.548	65641.34486
178.757	65609.23399
178.966	65570.28974
179.175	65584.02885
179.384	65627.57871
179.593	65604.64962
179.802	65682.68267
180.011	65609.23399
180.219	65629.87262
180.428	65600.06597
180.637	65600.06597
180.846	65570.28974
181.055	65602.3577
181.263	65627.57871
181.472	65524.53906
181.681	65657.41364
181.89	65593.19184
182.098	65526.82491
182.307	65634.46097
182.516	65595.48304
182.724	65611.52645
182.933	65574.86873
183.142	65698.77452
183.35	65595.48304
183.559	65602.3577
183.767	65618.40491
183.976	65648.23039
184.184	65662.00636
184.393	65588.60998
184.601	65648.23039
184.81	65529.11093
185.018	65652.82165
185.227	65590.90082
185.435	65671.194
185.644	65574.86873
185.852	65717.17627
186.06	65572.57914
186.269	65572.57914
186.477	65568.00052
186.685	65616.11191
186.894	65526.82491
187.102	65611.52645
187.31	65542.8308
187.518	65616.11191
187.727	65701.07409
187.935	65678.08665
188.143	65618.40491
188.351	65586.31933
188.559	65678.08665
188.768	65540.54372
188.976	65561.13391
189.184	65577.15849
189.392	65574.86873
189.6	65584.02885
189.808	65503.97436
190.016	65645.93503
190.224	65634.46097
190.432	65604.64962
190.64	65609.23399
190.848	65600.06597
191.056	65551.98093
191.264	65590.90082
191.472	65616.11191
191.679	65632.1667
191.887	65625.28499
192.095	65707.97392
192.303	65588.60998
192.511	65639.05005
192.719	65714.8754
192.926	65558.8454
193.134	65714.8754
193.342	65643.63986
193.55	65622.99145
193.757	65616.11191
193.965	65593.19184
194.173	65577.15849
194.38	65682.68267
194.588	65657.41364
194.796	65636.75542
195.003	65561.13391
195.211	65657.41364
195.418	65639.05005
195.626	65705.67379
195.833	65600.06597
196.041	65556.55707
196.248	65616.11191
196.456	65558.8454
196.663	65515.39743
196.871	65645.93503
197.078	65597.77441
197.285	65622.99145
197.493	65597.77441
197.7	65478.85907
197.908	65590.90082
198.115	65632.1667
198.322	65602.3577
198.529	65673.49137
198.737	65691.87691
198.944	65597.77441
199.151	65689.57807
199.358	65655.11756
199.566	65733.28752
199.773	65524.53906
199.98	65620.69809
200.187	65650.52593
200.394	65613.81909
200.601	65492.55569
200.809	65703.37385
201.016	65590.90082
201.223	65584.02885
201.43	65698.77452
201.637	65641.34486
201.844	65645.93503
202.051	65719.47732
202.258	65595.48304
202.465	65636.75542
202.672	65707.97392
202.878	65613.81909
203.085	65641.34486
203.292	65595.48304
203.499	65565.71147
203.706	65613.81909
203.913	65611.52645
204.12	65673.49137
204.326	65655.11756
204.533	65666.59982
204.74	65556.55707
204.947	65604.64962
205.153	65616.11191
205.36	65600.06597
205.567	65705.67379
205.773	65698.77452
205.98	65577.15849
206.187	65620.69809
206.393	65611.52645
206.6	65634.46097
206.806	65675.78892
207.013	65549.69314
207.22	65556.55707
207.426	65666.59982
207.633	65606.94172
207.839	65540.54372
208.046	65572.57914
208.252	65574.86873
208.458	65570.28974
208.665	65597.77441
208.871	65636.75542
209.078	65529.11093
209.284	65620.69809
209.49	65632.1667
209.697	65634.46097
209.903	65673.49137
210.109	65639.05005
210.316	65572.57914
210.522	65652.82165
210.728	65590.90082
210.934	65394.53483
211.14	65634.46097
211.347	65694.17593
211.553	65579.44843
211.759	65602.3577
211.965	65556.55707
212.171	65579.44843
212.377	65545.11807
212.583	65606.94172
212.789	65643.63986
212.996	65593.19184
213.202	65558.8454
213.408	65600.06597
213.614	65606.94172
213.82	65655.11756
214.025	65639.05005
214.231	65684.98095
214.437	65643.63986
214.643	65540.54372
214.849	65604.64962
215.055	65611.52645
215.261	65668.89682
215.467	65602.3577
215.672	65682.68267
215.878	65542.8308
216.084	65662.00636
216.29	65602.3577
216.496	65526.82491
216.701	65570.28974
216.907	65664.303
217.113	65604.64962
217.318	65535.97007
217.524	65648.23039
217.73	65659.70991
217.935	65627.57871
218.141	65574.86873
218.346	65593.19184
218.552	65625.28499
218.758	65593.19184
218.963	65581.73855
219.169	65590.90082
219.374	65602.3577
219.58	65602.3577
219.785	65622.99145
219.991	65549.69314
220.196	65703.37385
220.401	65636.75542
220.607	65606.94172
220.812	65522.25339
221.017	65611.52645
221.223	65558.8454
221.428	65533.68351
221.633	65554.26891
221.839	65602.3577
222.044	65662.00636
222.249	65593.19184
222.454	65586.31933
222.66	65588.60998
222.865	65634.46097
223.07	65487.98945
223.275	65609.23399
223.48	65577.15849
223.686	65662.00636
223.891	65691.87691
224.096	65684.98095
224.301	65501.69028
224.506	65657.41364
224.711	65563.4226
224.916	65643.63986
225.121	65636.75542
225.326	65634.46097
225.531	65662.00636
225.736	65641.34486
225.941	65671.194
226.146	65620.69809
226.351	65590.90082
226.555	65588.60998
226.76	65584.02885
226.965	65687.27942
227.17	65629.87262
227.375	65652.82165
227.58	65636.75542
227.784	65568.00052
227.989	65726.38159
228.194	65648.23039
228.399	65577.15849
228.603	65668.89682
228.808	65643.63986
229.013	65554.26891
229.217	65606.94172
229.422	65659.70991
229.627	65620.69809
229.831	65641.34486
230.036	65572.57914
230.24	65600.06597
230.445	65577.15849
230.649	65600.06597
230.854	65590.90082
231.058	65629.87262
231.263	65618.40491
231.467	65586.31933
231.672	65625.28499
231.876	65606.94172
232.081	65556.55707
232.285	65579.44843
232.489	65577.15849
232.694	65645.93503
232.898	65556.55707
233.102	65513.11247
233.307	65600.06597
233.511	65622.99145
233.715	65574.86873
233.919	65551.98093
234.124	65666.59982
234.328	65705.67379
234.532	65602.3577
234.736	65563.4226
234.94	65657.41364
235.145	65597.77441
235.349	65586.31933
235.553	65492.55569
235.757	65501.69028
235.961	65659.70991
236.165	65652.82165
236.369	65568.00052
236.573	65570.28974
236.777	65666.59982
236.981	65593.19184
237.185	65529.11093
237.389	65627.57871
237.593	65606.94172
237.797	65577.15849
238.001	65572.57914
238.205	65588.60998
238.409	65643.63986
238.612	65648.23039
238.816	65485.7066
239.02	65611.52645
239.224	65625.28499
239.428	65574.86873
239.631	65597.77441
239.835	65581.73855
240.039	65611.52645
240.243	65561.13391
240.446	65535.97007
240.65	65662.00636
240.854	65760.92803
241.057	65586.31933
241.261	65662.00636
241.464	65682.68267
241.668	65558.8454
241.872	65648.23039
242.075	65609.23399
242.279	65597.77441
242.482	65645.93503
242.686	65636.75542
242.889	65545.11807
243.093	65648.23039
243.296	65551.98093
243.499	65609.23399
243.703	65611.52645
243.906	65671.194
244.11	65581.73855
244.313	65616.11191
244.516	65590.90082
244.72	65551.98093
244.923	65673.49137
245.126	65517.68257
245.33	65588.60998
245.533	65664.303
245.736	65590.90082
245.939	65627.57871
246.142	65595.48304
246.346	65643.63986
246.549	65689.57807
246.752	65648.23039
246.955	65625.28499
247.158	65584.02885
247.361	65629.87262
247.564	65570.28974
247.767	65529.11093
247.971	65611.52645
248.174	65579.44843
248.377	65629.87262
248.58	65689.57807
248.783	65655.11756
248.985	65616.11191
249.188	65629.87262
249.391	65581.73855
249.594	65611.52645
249.797	65659.70991
250	65531.39714
250.203	65627.57871
250.406	65634.46097
250.609	65662.00636
250.811	65639.05005
251.014	65639.05005
251.217	65671.194
251.42	65655.11756
251.622	65487.98945
251.825	65551.98093
252.028	65639.05005
252.231	65643.63986
252.433	65657.41364
252.636	65549.69314
252.838	65577.15849
253.041	65613.81909
253.244	65563.4226
253.446	65513.11247
253.649	65600.06597
253.851	65556.55707
254.054	65634.46097
254.256	65547.40551
254.459	65639.05005
254.661	65581.73855
254.864	65659.70991
255.066	65456.04535
255.269	65618.40491
255.471	65584.02885
255.673	65568.00052
255.876	65639.05005
256.078	65584.02885
256.281	65595.48304
256.483	65611.52645
256.685	65666.59982
256.887	65602.3577
257.09	65593.19184
257.292	65657.41364
257.494	65568.00052
257.696	65627.57871
257.899	65657.41364
258.101	65515.39743
258.303	65588.60998
258.505	65687.27942
258.707	65620.69809
258.909	65648.23039
259.111	65707.97392
259.314	65588.60998
259.516	65639.05005
259.718	65551.98093
259.92	65597.77441
260.122	65625.28499
260.324	65639.05005
260.526	65531.39714
260.728	65595.48304
260.93	65577.15849
261.131	65694.17593
261.333	65652.82165
261.535	65616.11191
261.737	65643.63986
261.939	65570.28974
262.141	65606.94172
262.343	65563.4226
262.544	65581.73855
262.746	65581.73855
262.948	65664.303
263.15	65613.81909
263.352	65542.8308
263.553	65611.52645
263.755	65664.303
263.957	65538.2568
264.158	65574.86873
264.36	65597.77441
264.562	65561.13391
264.763	65648.23039
264.965	65579.44843
265.166	65632.1667
265.368	65535.97007
265.569	65641.34486
265.771	65636.75542
265.972	65572.57914
266.174	65641.34486
266.375	65627.57871
266.577	65613.81909
266.778	65581.73855
266.98	65611.52645
267.181	65662.00636
267.383	65682.68267
267.584	65533.68351
267.785	65618.40491
267.987	65639.05005
268.188	65687.27942
268.389	65572.57914
268.591	65682.68267
268.792	65680.38457
268.993	65584.02885
269.194	65639.05005
269.396	65547.40551
269.597	65600.06597
269.798	65650.52593
269.999	65597.77441
270.2	65680.38457
270.401	65542.8308
270.603	65641.34486
270.804	65657.41364
271.005	65659.70991
271.206	65611.52645
271.407	65584.02885
271.608	65538.2568
271.809	65616.11191
272.01	65602.3577
272.211	65629.87262
272.412	65568.00052
272.613	65561.13391
272.814	65664.303
273.015	65636.75542
273.216	65657.41364
273.416	65632.1667
273.617	65556.55707
273.818	65581.73855
274.019	65625.28499
274.22	65565.71147
274.421	65595.48304
274.621	65632.1667
274.822	65597.77441
275.023	65602.3577
275.224	65609.23399
275.424	65691.87691
275.625	65724.07998
275.826	65618.40491
276.026	65662.00636
276.227	65625.28499
276.428	65577.15849
276.628	65570.28974
276.829	65572.57914
277.029	65625.28499
277.23	65602.3577
277.43	65579.44843
277.631	65535.97007
277.831	65694.17593
278.032	65671.194
278.232	65625.28499
278.433	65641.34486
278.633	65533.68351
278.834	65643.63986
279.034	65572.57914
279.234	65542.8308
279.435	65613.81909
279.635	65593.19184
279.835	65620.69809
280.036	65531.39714
280.236	65705.67379
280.436	65641.34486
280.637	65613.81909
280.837	65547.40551
281.037	65618.40491
281.237	65618.40491
281.438	65632.1667
281.638	65641.34486
281.838	65636.75542
282.038	65636.75542
282.238	65613.81909
282.438	65622.99145
282.638	65620.69809
282.838	65639.05005
283.038	65593.19184
283.239	65634.46097
283.439	65616.11191
283.639	65519.96789
283.839	65650.52593
284.039	65590.90082
284.238	65616.11191
284.438	65572.57914
284.638	65666.59982
284.838	65643.63986
285.038	65645.93503
285.238	65668.89682
285.438	65609.23399
285.638	65606.94172
285.838	65611.52645
286.037	65577.15849
286.237	65650.52593
286.437	65657.41364
286.637	65634.46097
286.836	65632.1667
287.036	65682.68267
287.236	65579.44843
287.436	65666.59982
287.635	65602.3577
287.835	65611.52645
288.034	65616.11191
288.234	65522.25339
288.434	65588.60998
288.633	65625.28499
288.833	65659.70991
289.032	65714.8754
289.232	65602.3577
289.431	65602.3577
289.631	65639.05005
289.83	65533.68351
290.03	65662.00636
290.229	65650.52593
290.429	65721.77856
290.628	65551.98093
290.828	65684.98095
291.027	65707.97392
291.226	65634.46097
291.426	65595.48304
291.625	65478.85907
291.824	65629.87262
292.024	65629.87262
292.223	65662.00636
292.422	65620.69809
292.621	65639.05005
292.821	65586.31933
293.02	65625.28499
293.219	65554.26891
293.418	65659.70991
293.617	65565.71147
293.817	65652.82165
294.016	65524.53906
294.215	65556.55707
294.414	65698.77452
294.613	65634.46097
294.812	65620.69809
295.011	65648.23039
295.21	65597.77441
295.409	65687.27942
295.608	65733.28752
295.807	65652.82165
296.006	65588.60998
296.205	65622.99145
296.404	65487.98945
296.603	65641.34486
296.802	65526.82491
297.001	65650.52593
297.2	65648.23039
297.398	65666.59982
297.597	65554.26891
297.796	65691.87691
297.995	65675.78892
298.194	65572.57914
298.392	65636.75542
298.591	65629.87262
298.79	65673.49137
298.988	65641.34486
299.187	65636.75542
299.386	65606.94172
299.585	65625.28499
299.783	65609.23399
299.982	65545.11807
300.18	65643.63986
300.379	65632.1667
300.578	65634.46097
300.776	65691.87691
300.975	65597.77441
301.173	65540.54372
301.372	65625.28499
301.57	65643.63986
301.769	65648.23039
301.967	65577.15849
302.166	65625.28499
302.364	65668.89682
302.562	65620.69809
302.761	65574.86873
302.959	65629.87262
303.157	65584.02885
303.356	65657.41364
303.554	65565.71147
303.752	65625.28499
303.951	65590.90082
304.149	65503.97436
304.347	65597.77441
304.546	65568.00052
304.744	65604.64962
304.942	65588.60998
305.14	65657.41364
305.338	65682.68267
305.536	65634.46097
305.735	65636.75542
305.933	65643.63986
306.131	65652.82165
306.329	65565.71147
306.527	65682.68267
306.725	65629.87262
306.923	65577.15849
307.121	65519.96789
307.319	65655.11756
307.517	65657.41364
307.715	65606.94172
307.913	65497.12264
308.111	65584.02885
308.309	65600.06597
308.507	65632.1667
308.705	65620.69809
308.903	65675.78892
309.1	65556.55707
309.298	65561.13391
309.496	65602.3577
309.694	65639.05005
309.892	65664.303
310.089	65671.194
310.287	65620.69809
310.485	65650.52593
310.683	65606.94172
310.88	65625.28499
311.078	65632.1667
311.276	65568.00052
311.473	65618.40491
311.671	65609.23399
311.869	65565.71147
312.066	65616.11191
312.264	65613.81909
312.461	65535.97007
312.659	65556.55707
312.856	65568.00052
313.054	65645.93503
313.251	65641.34486
313.449	65554.26891
313.646	65622.99145
313.844	65666.59982
314.041	65622.99145
314.239	65551.98093
314.436	65542.8308
314.634	65510.82768
314.831	65568.00052
315.028	65689.57807
315.226	65622.99145
315.423	65551.98093
315.62	65657.41364
315.817	65604.64962
316.015	65497.12264
316.212	65652.82165
316.409	65572.57914
316.606	65588.60998
316.804	65634.46097
317.001	65668.89682
317.198	65570.28974
317.395	65570.28974
317.592	65570.28974
317.789	65620.69809
317.987	65597.77441
318.184	65650.52593
318.381	65687.27942
318.578	65572.57914
318.775	65682.68267
318.972	65678.08665
319.169	65675.78892
319.366	65568.00052
319.563	65604.64962
319.76	65643.63986
319.957	65634.46097
320.154	65648.23039
320.351	65565.71147
320.547	65588.60998
320.744	65627.57871
320.941	65506.25863
321.138	65620.69809
321.335	65606.94172
321.532	65655.11756
321.728	65574.86873
321.925	65673.49137
322.122	65494.83908
322.319	65721.77856
322.515	65565.71147
322.712	65579.44843
322.909	65691.87691
323.105	65696.47513
323.302	65556.55707
323.499	65535.97007
323.695	65584.02885
323.892	65613.81909
324.089	65570.28974
324.285	65636.75542
324.482	65645.93503
324.678	65696.47513
324.875	65650.52593
325.071	65600.06597
325.268	65604.64962
325.464	65629.87262
325.661	65609.23399
325.857	65622.99145
326.054	65657.41364
326.25	65584.02885
326.446	65581.73855
326.643	65602.3577
326.839	65625.28499
327.035	65705.67379
327.232	65556.55707
327.428	65701.07409
327.624	65694.17593
327.821	65611.52645
328.017	65671.194
328.213	65648.23039
328.409	65611.52645
328.606	65590.90082
328.802	65593.19184
328.998	65627.57871
329.194	65689.57807
329.39	65568.00052
329.586	65611.52645
329.783	65572.57914
329.979	65600.06597
330.175	65629.87262
330.371	65611.52645
330.567	65627.57871
330.763	65600.06597
330.959	65664.303
331.155	65636.75542
331.351	65645.93503
331.547	65581.73855
331.743	65721.77856
331.939	65618.40491
332.135	65645.93503
332.33	65545.11807
332.526	65609.23399
332.722	65593.19184
332.918	65561.13391
333.114	65664.303
333.31	65508.54306
333.506	65535.97007
333.701	65613.81909
333.897	65724.07998
334.093	65570.28974
334.289	65675.78892
334.484	65510.82768
334.68	65526.82491
334.876	65554.26891
335.071	65620.69809
335.267	65549.69314
335.463	65632.1667
335.658	65629.87262
335.854	65740.19513
336.049	65616.11191
336.245	65645.93503
336.441	65641.34486
336.636	65593.19184
336.832	65574.86873
337.027	65492.55569
337.223	65680.38457
337.418	65538.2568
337.613	65671.194
337.809	65588.60998
338.004	65664.303
338.2	65606.94172
338.395	65657.41364
338.591	65563.4226
338.786	65671.194
338.981	65666.59982
339.177	65675.78892
339.372	65602.3577
339.567	65542.8308
339.762	65574.86873
339.958	65742.49804
340.153	65701.07409
340.348	65073.04639
340.543	65622.99145
340.739	65666.59982
340.934	65636.75542
341.129	65584.02885
341.324	65584.02885
341.519	65691.87691
341.714	65756.31941
341.909	65671.194
342.104	65611.52645
342.299	65620.69809
342.495	65643.63986
342.69	65662.00636
342.885	65648.23039
343.08	65362.68974
343.275	65529.11093
343.469	65632.1667
343.664	65577.15849
343.859	65620.69809
344.054	65682.68267
344.249	65664.303
344.444	65609.23399
344.639	65643.63986
344.834	65668.89682
345.029	65616.11191
345.223	65590.90082
345.418	65671.194
345.613	65602.3577
345.808	65620.69809
346.003	65625.28499
346.197	65620.69809
346.392	65604.64962
346.587	65508.54306
346.781	65634.46097
346.976	65593.19184
347.171	65538.2568
347.365	65643.63986
347.56	65641.34486
347.755	65563.4226
347.949	65639.05005
348.144	65668.89682
348.338	65606.94172
348.533	65602.3577
348.727	65652.82165
348.922	65570.28974
349.116	65684.98095
349.311	65613.81909
349.505	65684.98095
349.7	65668.89682
349.894	65657.41364
350.089	65593.19184
350.283	65627.57871
350.477	65611.52645
350.672	65629.87262
350.866	65551.98093
351.06	65606.94172
351.255	65611.52645
351.449	65616.11191
351.643	65616.11191
351.837	65572.57914
352.032	65712.57472
352.226	65662.00636
352.42	65666.59982
352.614	65549.69314
352.809	65652.82165
353.003	65609.23399
353.197	65595.48304
353.391	65632.1667
353.585	65597.77441
353.779	65694.17593
353.973	65549.69314
354.167	65586.31933
354.361	65673.49137
354.555	65561.13391
354.749	65629.87262
354.943	65652.82165
355.137	65588.60998
355.331	65636.75542
355.525	65650.52593
355.719	65588.60998
355.913	65627.57871
356.107	65600.06597
356.301	65629.87262
356.495	65625.28499
356.689	65616.11191
356.883	65588.60998
357.076	65684.98095
357.27	65554.26891
357.464	65650.52593
357.658	65551.98093
357.852	65622.99145
358.045	65590.90082
358.239	65664.303
358.433	65639.05005
358.626	65650.52593
358.82	65622.99145
359.014	65602.3577
359.207	65611.52645
359.401	65703.37385
359.595	65590.90082
359.788	65643.63986
359.982	65616.11191
360.175	65581.73855
360.369	65639.05005
360.563	65611.52645
360.756	65622.99145
360.95	65600.06597
361.143	65710.27423
361.336	65760.92803
361.53	65666.59982
361.723	65652.82165
361.917	65595.48304
362.11	65655.11756
362.304	65629.87262
362.497	65620.69809
362.69	65494.83908
362.884	65604.64962
363.077	65643.63986
363.27	65636.75542
363.464	65611.52645
363.657	65652.82165
363.85	65570.28974
364.043	65639.05005
364.237	65611.52645
364.43	65584.02885
364.623	65579.44843
364.816	65668.89682
365.009	65558.8454
365.202	65643.63986
365.396	65542.8308
365.589	65604.64962
365.782	65604.64962
365.975	65684.98095
366.168	65574.86873
366.361	65538.2568
366.554	65620.69809
366.747	65652.82165
366.94	65586.31933
367.133	65625.28499
367.326	65636.75542
367.519	65639.05005
367.712	65747.10442
367.905	65634.46097
368.098	65659.70991
368.291	65517.68257
368.484	65620.69809
368.676	65590.90082
368.869	65691.87691
369.062	65632.1667
369.255	65616.11191
369.448	65579.44843
369.64	65604.64962
369.833	65643.63986
370.026	65570.28974
370.219	65687.27942
370.411	65515.39743
370.604	65701.07409
370.797	65604.64962
370.989	65577.15849
371.182	65694.17593
371.375	65565.71147
371.567	65595.48304
371.76	65627.57871
371.952	65696.47513
372.145	65600.06597
372.338	65593.19184
372.53	65602.3577
372.723	65680.38457
372.915	65627.57871
373.108	65655.11756
373.3	65588.60998
373.493	65581.73855
373.685	65579.44843
373.877	65673.49137
374.07	65563.4226
374.262	65554.26891
374.455	65664.303
374.647	65721.77856
374.839	65556.55707
375.032	65611.52645
375.224	65611.52645
375.416	65671.194
375.609	65174.56906
375.801	65618.40491
375.993	65664.303
376.185	65675.78892
376.378	65627.57871
376.57	65606.94172
376.762	65602.3577
376.954	65588.60998
377.146	65574.86873
377.338	65666.59982
377.53	65657.41364
377.723	65572.57914
377.915	65662.00636
378.107	65620.69809
378.299	65652.82165
378.491	65648.23039
378.683	65602.3577
378.875	65643.63986
379.067	65554.26891
379.259	65581.73855
379.451	65629.87262
379.643	65565.71147
379.835	65595.48304
380.027	65549.69314
380.219	65662.00636
380.41	65616.11191
380.602	65609.23399
380.794	65707.97392
380.986	65652.82165
381.178	65622.99145
381.37	65629.87262
381.561	65613.81909
381.753	65531.39714
381.945	65545.11807
382.137	65611.52645
382.328	65641.34486
382.52	65652.82165
382.712	65645.93503
382.903	65549.69314
383.095	65632.1667
383.287	65678.08665
383.478	65590.90082
383.67	65650.52593
383.862	65609.23399
384.053	65602.3577
384.245	65648.23039
384.436	65579.44843
384.628	65606.94172
384.819	65634.46097
385.011	65574.86873
385.202	65627.57871
385.394	65648.23039
385.585	65522.25339
385.777	65643.63986
385.968	65684.98095
386.159	65620.69809
386.351	65613.81909
386.542	65586.31933
386.734	65538.2568
386.925	65639.05005
387.116	65597.77441
387.308	65602.3577
387.499	65664.303
387.69	65579.44843
387.881	65538.2568
388.073	65613.81909
388.264	65611.52645
388.455	65698.77452
388.646	65565.71147
388.837	65584.02885
389.029	65606.94172
389.22	65632.1667
389.411	65652.82165
389.602	65609.23399
389.793	65643.63986
389.984	65622.99145
390.175	65593.19184
390.366	65579.44843
390.557	65675.78892
390.748	65616.11191
390.939	65691.87691
391.13	65639.05005
391.321	65602.3577
391.512	65634.46097
391.703	65620.69809
391.894	65648.23039
392.085	65671.194
392.276	65662.00636
392.467	65675.78892
392.658	65657.41364
392.849	65611.52645
393.039	65641.34486
393.23	65625.28499
393.421	65600.06597
393.612	65616.11191
393.803	65622.99145
393.993	65522.25339
394.184	65586.31933
394.375	65673.49137
394.566	65611.52645
394.756	65600.06597
394.947	65563.4226
395.138	65645.93503
395.328	65549.69314
395.519	65570.28974
395.709	65675.78892
395.9	65517.68257
396.091	65645.93503
396.281	65648.23039
396.472	65641.34486
396.662	65666.59982
396.853	65657.41364
397.043	65639.05005
397.234	65643.63986
397.424	65597.77441
397.615	65597.77441
397.805	65606.94172
397.996	65696.47513
398.186	65561.13391
398.376	65542.8308
398.567	65655.11756
398.757	65625.28499
398.947	65756.31941
399.138	65572.57914
399.328	65561.13391
399.518	65678.08665
399.709	65707.97392
399.899	65620.69809
400.089	65657.41364
400.279	65611.52645
400.47	65618.40491
400.66	65616.11191
400.85	65545.11807
401.04	65581.73855
401.23	65556.55707
401.421	65595.48304
401.611	65639.05005
401.801	65579.44843
401.991	65611.52645
402.181	65629.87262
402.371	65597.77441
402.561	65549.69314
402.751	65632.1667
402.941	65584.02885
403.131	65542.8308
403.321	65652.82165
403.511	65602.3577
403.701	65572.57914
403.891	65611.52645
404.081	65609.23399
404.271	65659.70991
404.461	65540.54372
404.651	65668.89682
404.84	65590.90082
405.03	65581.73855
405.22	65657.41364
405.41	65645.93503
405.6	65558.8454
405.789	65563.4226
405.979	65547.40551
406.169	65687.27942
406.359	65620.69809
406.548	65671.194
406.738	65671.194
406.928	65545.11807
407.118	65579.44843
407.307	65565.71147
407.497	65613.81909
407.686	65556.55707
407.876	65664.303
408.066	65643.63986
408.255	65652.82165
408.445	65645.93503
408.634	65572.57914
408.824	65593.19184
409.013	65636.75542
409.203	65558.8454
409.392	65593.19184
409.582	65597.77441
409.771	65691.87691
409.961	65650.52593
410.15	65579.44843
410.34	65590.90082
410.529	65666.59982
410.718	65606.94172
410.908	65478.85907
411.097	65666.59982
411.286	65650.52593
411.476	65680.38457
411.665	65641.34486
411.854	65632.1667
412.044	65675.78892
412.233	65590.90082
412.422	65590.90082
412.611	65609.23399
412.8	65568.00052
412.99	65655.11756
413.179	65574.86873
413.368	65648.23039
413.557	65673.49137
413.746	65625.28499
413.935	65648.23039
414.124	65694.17593
414.313	65558.8454
414.503	65593.19184
414.692	65650.52593
414.881	65538.2568
415.07	65554.26891
415.259	65627.57871
415.448	65551.98093
415.637	65609.23399
415.826	65590.90082
416.015	65682.68267
416.203	65627.57871
416.392	65577.15849
416.581	65639.05005
416.77	65597.77441
416.959	65586.31933
417.148	65645.93503
417.337	65657.41364
417.525	65602.3577
417.714	65584.02885
417.903	65662.00636
418.092	65657.41364
418.281	65590.90082
418.469	65600.06597
418.658	65604.64962
418.847	65634.46097
419.035	65668.89682
419.224	65682.68267
419.413	65659.70991
419.601	65602.3577
419.79	65691.87691
419.979	65627.57871
420.167	65662.00636
420.356	65625.28499
420.544	65588.60998
420.733	65657.41364
420.921	65636.75542
421.11	65588.60998
421.299	65574.86873
421.487	65618.40491
421.675	65613.81909
421.864	65622.99145
422.052	65641.34486
422.241	65522.25339
422.429	65634.46097
422.618	65625.28499
422.806	65602.3577
422.994	65634.46097
423.183	65579.44843
423.371	65634.46097
423.559	65593.19184
423.748	65565.71147
423.936	65639.05005
424.124	65724.07998
424.312	65659.70991
424.501	65602.3577
424.689	65625.28499
424.877	65622.99145
425.065	65620.69809
425.254	65639.05005
425.442	65476.57692
425.63	65545.11807
425.818	65535.97007
426.006	65625.28499
426.194	65531.39714
426.382	65549.69314
426.57	65581.73855
426.758	65597.77441
426.946	65634.46097
427.134	65572.57914
427.323	65650.52593
427.51	65620.69809
427.698	65606.94172
427.886	65577.15849
428.074	65540.54372
428.262	65721.77856
428.45	65611.52645
428.638	65604.64962
428.826	65579.44843
429.014	65652.82165
429.202	65726.38159
429.39	65689.57807
429.577	65549.69314
429.765	65551.98093
429.953	65547.40551
430.141	65622.99145
430.329	65579.44843
430.516	65648.23039
430.704	65487.98945
430.892	65636.75542
431.079	65710.27423
431.267	65551.98093
431.455	65687.27942
431.643	65540.54372
431.83	65588.60998
432.018	65577.15849
432.205	65636.75542
432.393	65684.98095
432.581	65620.69809
432.768	65551.98093
432.956	65556.55707
433.143	65597.77441
433.331	65570.28974
433.518	65636.75542
433.706	65618.40491
433.893	65510.82768
434.081	65643.63986
434.268	65526.82491
434.456	65659.70991
434.643	65648.23039
434.83	65561.13391
435.018	65561.13391
435.205	65643.63986
435.392	65643.63986
435.58	65717.17627
435.767	65558.8454
435.954	65613.81909
436.142	65551.98093
436.329	65652.82165
436.516	65634.46097
436.703	65577.15849
436.891	65538.2568
437.078	65563.4226
437.265	65558.8454
437.452	65568.00052
437.639	65602.3577
437.827	65584.02885
438.014	65565.71147
438.201	65618.40491
438.388	65561.13391
438.575	65611.52645
438.762	65613.81909
438.949	65627.57871
439.136	65572.57914
439.323	65519.96789
439.51	65620.69809
439.697	65542.8308
439.884	65547.40551
440.071	65572.57914
440.258	65545.11807
440.445	65556.55707
440.632	65362.68974
440.819	65565.71147
441.006	65494.83908
441.193	65579.44843
441.38	65542.8308
441.566	65604.64962
441.753	65613.81909
441.94	65547.40551
442.127	65611.52645
442.314	65531.39714
442.5	65508.54306
442.687	65524.53906
442.874	65551.98093
443.061	65558.8454
443.247	65542.8308
443.434	65453.76493
443.621	65620.69809
443.807	65565.71147
443.994	65442.36546
444.181	65579.44843
444.367	65609.23399
444.554	65524.53906
444.74	65549.69314
444.927	65579.44843
445.114	65522.25339
445.3	65396.81076
445.487	65474.29493
445.673	65490.27249
445.86	65519.96789
446.046	65545.11807
446.233	65508.54306
446.419	65540.54372
446.605	65435.52786
446.792	65440.08609
446.978	65579.44843
447.165	65515.39743
447.351	65540.54372
447.537	65554.26891
447.724	65563.4226
447.91	65449.20462
448.096	65474.29493
448.283	65410.46994
448.469	65513.11247
448.655	65497.12264
448.841	65444.64501
449.028	65483.42391
449.214	65469.73149
449.4	65446.92473
449.586	65467.45003
449.773	65440.08609
449.959	65467.45003
450.145	65353.59727
450.331	65483.42391
450.517	65513.11247
450.703	65392.25907
450.889	65485.7066
451.075	65430.97032
451.261	65355.87014
451.447	65349.05206
451.633	65428.69181
451.819	65417.30185
452.005	65346.7797
452.191	65415.02437
452.377	65396.81076
452.563	65374.05915
452.749	65378.60811
452.935	65353.59727
453.121	65314.98447
453.307	65344.50752
453.493	65287.75761
453.679	65328.60695
453.865	65299.0992
454.05	65271.88637
454.236	65317.25446
454.422	65383.15775
454.608	65339.96365
454.794	65360.41637
454.979	65369.51088
455.165	65337.69198
455.351	65278.68733
455.537	65283.22214
455.722	65208.48253
455.908	65290.02559
456.094	65226.58474
456.279	65206.22049
456.465	65172.30946
456.65	65267.35323
456.836	65235.63979
457.022	65224.32139
457.207	65240.1683
457.393	65192.65168
457.578	65244.69747
457.764	65147.46457
457.949	65219.79518
458.135	65158.75528
458.32	65294.56206
458.506	65246.9623
458.691	65210.74473
458.877	65190.39079
459.062	65256.02328
459.248	65262.82076
459.433	65138.43491
459.618	65115.87198
459.804	65213.0071
459.989	65120.38328
460.174	65115.87198
460.36	65142.94942
460.545	65156.49682
460.73	65172.30946
460.915	65161.01391
461.101	65170.05003
461.286	65138.43491
461.471	65156.49682
461.656	65269.61972
461.842	65115.87198
462.027	65145.20692
462.212	65115.87198
462.397	65097.83315
462.582	65129.40781
462.767	65028.02848
462.952	65224.32139
463.138	65109.10622
463.323	65032.52744
463.508	65129.40781
463.693	65088.81756
463.878	65120.38328
464.063	65030.27788
464.248	65066.28968
464.433	65066.28968
464.618	65066.28968
464.803	65061.78601
464.988	65064.03777
465.173	64996.55321
465.357	65037.02704
465.542	65041.52725
465.727	64944.90975
465.912	64994.30614
466.097	65050.52957
466.282	65050.52957
466.467	64994.30614
466.651	64949.39726
466.836	64949.39726
467.021	65106.85129
467.206	65001.04781
467.391	65059.5344
467.575	65021.28121
467.76	65012.28703
467.945	64926.96586
468.129	64958.37411
468.314	64920.23942
468.499	65037.02704
468.683	64909.03173
468.868	64989.81248
469.053	64978.58101
469.237	64962.86345
469.422	64909.03173
469.606	64965.10836
469.791	65028.02848
469.975	64947.15343
470.16	64974.08951
470.344	64938.17965
470.529	65010.03887
470.713	64841.8649
470.898	65003.29534
471.082	64965.10836
471.267	65012.28703
471.451	64996.55321
471.636	65113.61657
471.82	65003.29534
472.004	64873.19256
472.189	64992.05923
472.373	65066.28968
472.557	65048.27875
472.742	65034.77716
472.926	65043.7776
473.11	65055.03167
473.295	64960.6187
473.479	64969.59862
473.663	64978.58101
473.847	65041.52725
474.031	65032.52744
474.216	65028.02848
474.4	65052.78054
474.584	65046.0281
474.768	65007.79088
474.952	64942.66623
475.136	64940.42286
475.32	65073.04639
475.505	64960.6187
475.689	64906.79064
475.873	64980.827
476.057	64971.84399
476.241	65019.03243
476.425	64944.90975
476.609	64909.03173
476.793	64985.31943
476.977	65055.03167
477.161	64949.39726
477.345	64931.45092
477.529	65048.27875
477.713	64893.34733
477.896	65030.27788
478.08	64875.43138
478.264	64942.66623
478.448	64967.35341
478.632	64897.82783
478.816	65106.85129
478.999	64913.51435
479.183	64996.55321
479.367	64965.10836
479.551	64801.62944
479.735	64904.54971
479.918	64940.42286
480.102	64873.19256
480.286	64911.27296
480.469	64978.58101
480.653	64875.43138
480.837	64891.10731
481.02	64917.99758
481.204	64877.67035
481.388	64848.5755
481.571	64750.28708
481.755	64886.62772
481.938	64877.67035
482.122	64913.51435
482.305	64817.27085
482.489	64734.67651
482.673	64779.29713
482.856	64853.04998
483.04	64846.33849
483.223	64837.39192
483.406	64857.52506
483.59	64853.04998
483.773	64797.1618
483.957	64877.67035
484.14	64768.13649
484.323	64732.447
484.507	64774.83243
484.69	64808.33202
484.874	64879.90946
485.057	64826.21206
485.24	64781.5297
485.423	64917.99758
485.607	64759.21062
485.79	64817.27085
485.973	64772.60031
486.156	64707.93207
486.34	64723.53046
486.523	64705.70431
486.706	64765.9048
486.889	64837.39192
487.072	64732.447
487.256	64712.38803
487.439	64772.60031
487.622	64714.61622
487.805	64768.13649
487.988	64739.13594
488.171	64707.93207
488.354	64696.7947
488.537	64761.44186
488.72	64714.61622
488.903	64690.114
489.086	64743.59596
489.269	64703.47669
489.452	64699.02188
489.635	64647.83286
489.818	64539.02751
490.001	64777.06471
490.184	64736.90615
490.367	64734.67651
490.55	64638.93813
490.732	64532.37684
490.915	64676.75648
491.098	64638.93813
491.281	64763.67326
491.464	64690.114
491.647	64716.84457
491.829	64723.53046
492.012	64632.26856
492.195	64578.95776
492.378	64667.85434
492.56	64523.51121
492.743	64545.67943
492.926	64516.86343
493.108	64656.72987
493.291	64636.7148
493.474	64499.14207
493.656	64514.64778
493.839	64459.30096
494.022	64525.72741
494.204	64454.87689
494.387	64481.42946
494.569	64618.93326
494.752	64488.07066
494.934	64512.43227
495.117	64499.14207
495.299	64536.81048
495.482	64468.15073
495.664	64421.71357
495.847	64503.57158
496.029	64543.46199
496.212	64291.56166
496.394	64514.64778
496.576	64468.15073
496.759	64561.20542
496.941	64384.16495
497.123	64229.95363
497.306	64536.81048
497.488	64450.45336
497.67	64519.07922
497.853	64512.43227
498.035	64386.37262
498.217	64320.19986
498.4	64390.78837
498.582	64541.24468
498.764	64465.93809
498.946	64395.20466
499.128	64408.45671
499.311	64437.18601
499.493	64530.16023
499.675	64397.413
499.857	64359.88927
500.039	64322.40372
500.221	64359.88927
500.403	64340.03925
500.585	64238.74861
500.767	64300.37107
500.949	64340.03925
501.132	64364.30184
501.314	64397.413
501.496	64256.34472
501.678	64470.36351
501.859	64326.81181
502.041	64317.99614
502.223	64317.99614
502.405	64351.06572
502.587	64254.14476
502.769	64278.35143
502.951	64276.15018
503.133	64304.77656
503.315	64359.88927
503.497	64333.42494
503.678	64324.6077
503.86	64412.87512
504.042	64207.97512
504.224	64238.74861
504.406	64298.16852
504.587	64353.27141
504.769	64306.97949
504.951	64282.75432
505.132	64390.78837
505.314	64324.6077
505.496	64287.15773
505.678	64353.27141
505.859	64335.62958
506.041	64287.15773
506.222	64302.57375
506.404	64298.16852
506.586	64311.38576
506.767	64247.54564
506.949	64355.47723
507.13	64304.77656
507.312	64313.58909
507.493	64172.83587
507.675	64289.35963
507.856	64287.15773
508.038	64377.54272
508.219	64355.47723
508.401	64353.27141
508.582	64258.54481
508.764	64295.9661
508.945	64262.94538
509.126	64351.06572
509.308	64333.42494
509.489	64317.99614
509.671	64375.33558
509.852	64282.75432
510.033	64375.33558
510.214	64348.86016
510.396	64388.58043
510.577	64454.87689
510.758	64271.74806
510.94	64282.75432
511.121	64317.99614
511.302	64320.19986
511.483	64355.47723
511.664	64291.56166
511.846	64404.03882
512.027	64322.40372
512.208	64386.37262
512.389	64373.12856
512.57	64289.35963
512.751	64326.81181
512.932	64309.18256
513.113	64218.96278
513.294	64342.24428
513.476	64329.01606
513.657	64362.09549
513.838	64437.18601
514.019	64298.16852
514.2	64377.54272
514.381	64322.40372
514.561	64302.57375
514.742	64399.62147
514.923	64331.22043
515.104	64313.58909
515.285	64357.68319
515.466	64388.58043
515.647	64426.13359
515.828	64280.55281
516.009	64324.6077
516.189	64399.62147
516.37	64434.97526
516.551	64408.45671
516.732	64408.45671
516.913	64373.12856
517.093	64401.83008
517.274	64408.45671
517.455	64249.74522
517.636	64322.40372
517.816	64313.58909
517.997	64337.83435
518.178	64344.44944
518.358	64443.81908
518.539	64370.92168
518.72	64353.27141
518.9	64342.24428
519.081	64355.47723
519.261	64304.77656
519.442	64221.1607
519.622	64337.83435
519.803	64342.24428
519.984	64291.56166
520.164	64368.71494
520.345	64348.86016
520.525	64335.62958
520.705	64390.78837
520.886	64287.15773
521.066	64501.35676
521.247	64357.68319
521.427	64362.09549
521.608	64203.58094
521.788	64388.58043
521.968	64190.40145
522.149	64406.2477
522.329	64329.01606
522.509	64437.18601
522.69	64388.58043
522.87	64417.29408
523.05	64443.81908
523.231	64423.92351
523.411	64384.16495
523.591	64331.22043
523.771	64412.87512
523.951	64326.81181
524.132	64309.18256
524.312	64359.88927
524.492	64388.58043
524.672	64333.42494
524.852	64309.18256
525.032	64370.92168
525.213	64337.83435
525.393	64269.5472
525.573	64446.03037
525.753	64298.16852
525.933	64324.6077
526.113	64331.22043
526.293	64434.97526
526.473	64404.03882
526.653	64258.54481
526.833	64395.20466
527.013	64452.66506
527.193	64368.71494
527.373	64384.16495
527.553	64357.68319
527.733	64326.81181
527.913	64415.08453
528.092	64554.55059
528.272	64340.03925
528.452	64397.413
528.632	64477.00267
528.812	64381.95741
528.992	64331.22043
529.171	64364.30184
529.351	64459.30096
529.531	64452.66506
529.711	64348.86016
529.89	64450.45336
530.07	64342.24428
530.25	64256.34472
530.43	64260.74503
530.609	64384.16495
530.789	64366.50832
530.969	64355.47723
531.148	64423.92351
531.328	64461.5132
531.507	64415.08453
531.687	64329.01606
531.867	64454.87689
532.046	64313.58909
532.226	64419.50376
532.405	64357.68319
532.585	64379.75
532.764	64401.83008
532.944	64256.34472
533.123	64384.16495
533.303	64434.97526
533.482	64258.54481
533.662	64410.66585
533.841	64353.27141
534.021	64317.99614
534.2	64406.2477
534.379	64450.45336
534.559	64388.58043
534.738	64348.86016
534.917	64490.28467
535.097	64379.75
535.276	64375.33558
535.455	64333.42494
535.635	64468.15073
535.814	64412.87512
535.993	64344.44944
536.172	64477.00267
536.352	64439.3969
536.531	64459.30096
536.71	64366.50832
536.889	64386.37262
537.068	64426.13359
537.248	64446.03037
537.427	64309.18256
537.606	64379.75
537.785	64384.16495
537.964	64399.62147
538.143	64463.72558
538.322	64415.08453
538.501	64381.95741
538.68	64437.18601
538.859	64333.42494
539.038	64472.57643
539.217	64472.57643
539.396	64541.24468
539.575	64397.413
539.754	64379.75
539.933	64344.44944
540.112	64565.64267
540.291	64404.03882
540.47	64406.2477
540.649	64408.45671
540.828	64565.64267
541.007	64375.33558
541.186	64483.64306
541.364	64384.16495
541.543	64465.93809
541.722	64421.71357
541.901	64459.30096
542.08	64309.18256
542.258	64346.65474
542.437	64490.28467
542.616	64355.47723
542.795	64510.21689
542.973	64465.93809
543.152	64474.78949
543.331	64452.66506
543.509	64499.14207
543.688	64379.75
543.867	64477.00267
544.045	64490.28467
544.224	64340.03925
544.402	64080.74787
544.581	64443.81908
544.76	64541.24468
544.938	64434.97526
545.117	64404.03882
545.295	64452.66506
545.474	64450.45336
545.652	64525.72741
545.831	64477.00267
546.009	64346.65474
546.188	64450.45336
546.366	64463.72558
546.544	64441.60792
546.723	64437.18601
546.901	64430.55416
547.08	64373.12856
547.258	64483.64306
547.436	64481.42946
547.615	64530.16023
547.793	64457.08886
547.971	64439.3969
548.15	64454.87689
548.328	64401.83008
548.506	64340.03925
548.684	64313.58909
548.863	64474.78949
549.041	64505.78655
549.219	64563.42398
549.397	64426.13359
549.576	64477.00267
549.754	64434.97526
549.932	64461.5132
550.11	64503.57158
550.288	64539.02751
550.466	64625.60028
550.644	64401.83008
550.822	64499.14207
551.001	64539.02751
551.179	64592.27787
551.357	64527.94375
551.535	64470.36351
551.713	64530.16023
551.891	64534.59359
552.069	64578.95776
552.247	64539.02751
552.425	64574.51884
552.603	64574.51884
552.781	64552.3326
552.958	64583.39724
553.136	64561.20542
553.314	64676.75648
553.492	64632.26856
553.67	64658.95448
553.848	64672.30513
554.026	64770.36832
554.204	64752.51774
554.381	64692.34075
554.559	64754.74856
554.737	64828.44773
554.915	64761.44186
555.092	64719.07305
555.27	64792.69475
555.448	64754.74856
555.626	64806.09768
555.803	64893.34733
555.981	64721.30168
556.159	64850.81267
556.336	64859.76283
556.514	64922.48141
556.692	64877.67035
556.869	64850.81267
557.047	64846.33849
557.224	64877.67035
557.402	64893.34733
557.58	64817.27085
557.757	64931.45092
557.935	65030.27788
558.112	64935.93658
558.29	64924.72356
558.467	65030.27788
558.645	65032.52744
558.822	65046.0281
559	65019.03243
559.177	64994.30614
559.354	64969.59862
559.532	64976.33518
559.709	65007.79088
559.887	64969.59862
560.064	65070.79399
560.241	64947.15343
560.419	64967.35341
560.596	64947.15343
560.773	64940.42286
560.951	64922.48141
561.128	64806.09768
561.305	65034.77716
561.482	64976.33518
561.66	64924.72356
561.837	64920.23942
562.014	64969.59862
562.191	65043.7776
562.368	64989.81248
562.546	64922.48141
562.723	65023.53014
562.9	64992.05923
563.077	64917.99758
563.254	65014.53534
563.431	64983.07313
563.608	64895.58751
563.785	65012.28703
563.962	64951.64124
564.139	65041.52725
564.317	64924.72356
564.494	65057.28296
564.671	64859.76283
564.848	64956.12966
565.025	65007.79088
565.201	65034.77716
565.378	64965.10836
565.555	64962.86345
565.732	64998.80043
565.909	65007.79088
566.086	64989.81248
566.263	65039.27707
566.44	64994.30614
566.617	65034.77716
566.794	64956.12966
566.97	65019.03243
567.147	65088.81756
567.324	64992.05923
567.501	65052.78054
567.678	64989.81248
567.854	65012.28703
568.031	65122.63918
568.208	64992.05923
568.384	65057.28296
568.561	65032.52744
568.738	65057.28296
568.915	65034.77716
569.091	65109.10622
569.268	65068.54176
569.444	65118.12755
569.621	65088.81756
569.798	65115.87198
569.974	65059.5344
570.151	65055.03167
570.327	65070.79399
570.504	65043.7776
570.681	65138.43491
570.857	65106.85129
571.034	65115.87198
571.21	65066.28968
571.387	65213.0071
571.563	65185.86948
571.739	65023.53014
571.916	65235.63979
572.092	65161.01391
572.269	65109.10622
572.445	65122.63918
572.622	65170.05003
572.798	65109.10622
572.974	65163.2727
573.151	65219.79518
573.327	65161.01391
573.503	65059.5344
573.68	65222.05821
573.856	65215.26963
574.032	65219.79518
574.208	65100.08745
574.385	65124.89523
574.561	65237.90396
574.737	65210.74473
574.913	65106.85129
575.089	65210.74473
575.266	65215.26963
575.442	65226.58474
575.618	65066.28968
575.794	65188.13005
575.97	65197.17397
576.146	65127.15144
576.322	65192.65168
576.499	65084.31072
576.675	65102.3419
576.851	65104.59652
577.027	65028.02848
577.203	65161.01391
577.379	65201.6969
577.555	65156.49682
577.731	65111.36132
577.907	64785.99528
578.083	65066.28968
578.259	65138.43491
578.435	65113.61657
578.611	64994.30614
578.786	65010.03887
578.962	65061.78601
579.138	65174.56906
579.314	65066.28968
579.49	65138.43491
579.666	65041.52725
579.842	65118.12755
580.017	65118.12755
580.193	65104.59652
580.369	65052.78054
580.545	65077.55164
580.72	64983.07313
580.896	65113.61657
581.072	65003.29534
581.248	65050.52957
581.423	64978.58101
581.599	65082.05754
581.775	65041.52725
581.95	65043.7776
582.126	65070.79399
582.302	64974.08951
582.477	65037.02704
582.653	65097.83315
582.829	65082.05754
583.004	65172.30946
583.18	65068.54176
583.355	65106.85129
583.531	65037.02704
583.706	65014.53534
583.882	65106.85129
584.057	65190.39079
584.233	65052.78054
584.408	64953.88537
584.584	65073.04639
584.759	65136.17789
584.935	65136.17789
585.11	65122.63918
585.285	65156.49682
585.461	65228.84826
585.636	65129.40781
585.812	65147.46457
585.987	65215.26963
586.162	65201.6969
586.338	65142.94942
586.513	65237.90396
586.688	65299.0992
586.863	65176.82882
587.039	65233.37578
587.214	65208.48253
587.389	65203.95862
587.564	65244.69747
587.74	65201.6969
587.915	65369.51088
588.09	65314.98447
588.265	65251.49246
588.44	65328.60695
588.615	65312.71464
588.791	65301.36802
588.966	65355.87014
589.141	65374.05915
589.316	65294.56206
589.491	65308.17549
589.666	65278.68733
589.841	65242.4328
590.016	65353.59727
590.191	65269.61972
590.366	65401.36313
590.541	65419.5795
590.716	65369.51088
590.891	65346.7797
591.066	65442.36546
591.241	65417.30185
591.416	65435.52786
591.591	65424.13531
591.766	65424.13531
591.941	65538.2568
592.116	65551.98093
592.29	65433.249
592.465	65481.14141
592.64	65595.48304
592.815	65529.11093
592.99	65579.44843
593.165	65538.2568
593.339	65561.13391
593.514	65531.39714
593.689	65453.76493
593.864	65535.97007
594.038	65563.4226
594.213	65456.04535
594.388	65538.2568
594.562	65515.39743
594.737	65453.76493
594.912	65533.68351
595.086	65590.90082
595.261	65542.8308
595.436	65472.01313
595.61	65492.55569
595.785	65485.7066
595.959	65481.14141
596.134	65522.25339
596.309	65519.96789
596.483	65526.82491
596.658	65515.39743
596.832	65542.8308
597.007	65417.30185
597.181	65574.86873
597.356	65490.27249
597.53	65579.44843
597.704	65551.98093
597.879	65510.82768
598.053	65515.39743
598.228	65428.69181
598.402	65426.41347
598.576	65526.82491
598.751	65442.36546
598.925	65501.69028
599.1	65501.69028
599.274	65547.40551
599.448	65513.11247
599.622	65419.5795
599.797	65497.12264
599.971	65497.12264
600.145	65374.05915
600.32	65469.73149
600.494	65494.83908
600.668	65446.92473
600.842	65435.52786
601.016	65545.11807
601.191	65446.92473
601.365	65237.90396
601.539	65467.45003
601.713	65501.69028
601.887	65410.46994
602.061	65526.82491
602.235	65449.20462
602.409	65519.96789
602.583	65458.32594
602.758	65581.73855
602.932	65519.96789
603.106	65584.02885
603.28	65533.68351
603.454	65487.98945
603.628	65442.36546
603.802	65538.2568
603.976	65522.25339
604.149	65503.97436
604.323	65458.32594
604.497	65535.97007
604.671	65453.76493
604.845	65487.98945
605.019	65526.82491
605.193	65538.2568
605.367	65451.48469
605.541	65483.42391
605.714	65428.69181
605.888	65437.80688
606.062	65508.54306
606.236	65611.52645
606.41	65394.53483
606.583	65519.96789
606.757	65542.8308
606.931	65487.98945
607.105	65522.25339
607.278	65526.82491
607.452	65572.57914
607.626	65437.80688
607.799	65522.25339
607.973	65540.54372
608.147	65481.14141
608.32	65538.2568
608.494	65492.55569
608.668	65519.96789
608.841	65419.5795
609.015	65430.97032
609.188	65483.42391
609.362	65593.19184
609.535	65506.25863
609.709	65531.39714
609.882	65494.83908
610.056	65467.45003
610.229	65497.12264
610.403	65499.40637
610.576	65394.53483
610.75	65467.45003
610.923	65497.12264
611.097	65554.26891
611.27	65421.85732
611.443	65487.98945
611.617	65588.60998
611.79	65593.19184
611.963	65485.7066
612.137	65497.12264
612.31	65492.55569
612.483	65519.96789
612.657	65503.97436
612.83	65561.13391
613.003	65558.8454
613.177	65519.96789
613.35	65538.2568
613.523	65497.12264
613.696	65474.29493
613.869	65611.52645
614.043	65449.20462
614.216	65497.12264
614.389	65535.97007
614.562	65458.32594
614.735	65513.11247
614.908	65522.25339
615.082	65456.04535
615.255	65501.69028
615.428	65465.16875
615.601	65542.8308
615.774	65515.39743
615.947	65469.73149
616.12	65374.05915
616.293	65410.46994
616.466	65424.13531
616.639	65442.36546
616.812	65474.29493
616.985	65392.25907
617.158	65472.01313
617.331	65490.27249
617.504	65469.73149
617.677	65547.40551
617.85	65501.69028
618.022	65515.39743
618.195	65497.12264
618.368	65433.249
618.541	65419.5795
618.714	65499.40637
618.887	65487.98945
619.059	65453.76493
619.232	65497.12264
619.405	65339.96365
619.578	65369.51088
619.751	65478.85907
619.923	65456.04535
620.096	65387.70807
620.269	65408.19298
620.441	65458.32594
620.614	65499.40637
620.787	65426.41347
620.96	65440.08609
621.132	65344.50752
621.305	65317.25446
621.477	65374.05915
621.65	65460.6067
621.823	65474.29493
621.995	65369.51088
622.168	65378.60811
622.34	65380.88284
622.513	65392.25907
622.685	65387.70807
622.858	65369.51088
623.03	65428.69181
623.203	65456.04535
623.375	65408.19298
623.548	65449.20462
623.72	65380.88284
623.893	65383.15775
624.065	65405.91619
624.238	65399.08686
624.41	65499.40637
624.582	65337.69198
624.755	65415.02437
624.927	65392.25907
625.1	65385.43282
625.272	65458.32594
625.444	65351.32458
625.617	65265.08691
625.789	65342.2355
625.961	65403.63958
626.133	65339.96365
626.306	65326.33612
626.478	65326.33612
626.65	65310.44498
626.822	65392.25907
626.995	65290.02559
627.167	65301.36802
627.339	65371.78493
627.511	65262.82076
627.683	65301.36802
627.855	65271.88637
628.027	65351.32458
628.2	65285.48979
628.372	65310.44498
628.544	65312.71464
628.716	65310.44498
628.888	65287.75761
629.06	65224.32139
629.232	65387.70807
629.404	65312.71464
629.576	65228.84826
629.748	65328.60695
629.92	65190.39079
630.092	65179.08874
630.264	65276.42018
630.436	65353.59727
630.608	65285.48979
630.78	65280.95465
630.952	65324.06545
631.124	65246.9623
631.295	65269.61972
631.467	65321.79495
631.639	65237.90396
631.811	65317.25446
631.983	65296.83055
632.155	65296.83055
632.326	65292.29374
632.498	65287.75761
632.67	65296.83055
632.842	65330.87795
633.014	65276.42018
633.185	65219.79518
633.357	65308.17549
633.529	65181.34883
633.7	65215.26963
633.872	65330.87795
634.044	65333.14913
634.215	65222.05821
634.387	65296.83055
634.559	65374.05915
634.73	65317.25446
634.902	65364.96328
635.074	65301.36802
635.245	65292.29374
635.417	65314.98447
635.588	65228.84826
635.76	65374.05915
635.931	65360.41637
636.103	65374.05915
636.274	65269.61972
636.446	65321.79495
636.617	65256.02328
636.789	65349.05206
636.96	65342.2355
637.132	65362.68974
637.303	65351.32458
637.474	65383.15775
637.646	65301.36802
637.817	65376.33354
637.989	65328.60695
638.16	65387.70807
638.331	65410.46994
638.503	65274.15319
638.674	65305.90617
638.845	65410.46994
639.017	65321.79495
639.188	65324.06545
639.359	65412.74707
639.53	65399.08686
639.702	65328.60695
639.873	65408.19298
640.044	65371.78493
640.215	65383.15775
640.387	65283.22214
640.558	65265.08691
640.729	65237.90396
640.9	65267.35323
641.071	65278.68733
641.242	65283.22214
641.413	65294.56206
641.585	65339.96365
641.756	65267.35323
641.927	65394.53483
642.098	65319.52462
642.269	65317.25446
642.44	65383.15775
642.611	65310.44498
642.782	65317.25446
642.953	65226.58474
643.124	65269.61972
643.295	65392.25907
643.466	65258.28894
643.637	65321.79495
643.808	65303.63701
643.979	65235.63979
644.15	65208.48253
644.32	65262.82076
644.491	65280.95465
644.662	65428.69181
644.833	65305.90617
645.004	65271.88637
645.175	65314.98447
645.346	65251.49246
645.516	65344.50752
645.687	65296.83055
645.858	65299.0992
646.029	65249.2273
646.199	65330.87795
646.37	65292.29374
646.541	65355.87014
646.712	65228.84826
646.882	65276.42018
647.053	65308.17549
647.224	65303.63701
647.394	65290.02559
647.565	65294.56206
647.736	65333.14913
647.906	65367.237
648.077	65294.56206
648.248	65364.96328
648.418	65337.69198
648.589	65380.88284
648.759	65321.79495
648.93	65324.06545
649.1	65383.15775
649.271	65251.49246
649.441	65260.55477
649.612	65333.14913
649.782	65258.28894
649.953	65240.1683
650.123	65292.29374
650.294	65233.37578
650.464	65274.15319
650.635	64980.827
650.805	65296.83055
650.975	65170.05003
651.146	65333.14913
651.316	65287.75761
651.487	65317.25446
651.657	65319.52462
651.827	65251.49246
651.998	65374.05915
652.168	65260.55477
652.338	65324.06545
652.508	65389.98348
652.679	65312.71464
652.849	65233.37578
653.019	65269.61972
653.189	65265.08691
653.36	65278.68733
653.53	65374.05915
653.7	65280.95465
653.87	65394.53483
654.04	65328.60695
654.211	65346.7797
654.381	65251.49246
654.551	65364.96328
654.721	65274.15319
654.891	65349.05206
655.061	65271.88637
655.231	65383.15775
655.401	65396.81076
655.571	65362.68974
655.741	65280.95465
655.911	65328.60695
656.081	65267.35323
656.251	65399.08686
656.421	65294.56206
656.591	65389.98348
656.761	65305.90617
656.931	65430.97032
657.101	65396.81076
657.271	65342.2355
657.441	65319.52462
657.611	65433.249
657.781	65324.06545
657.951	65367.237
658.121	65305.90617
658.291	65301.36802
658.46	65408.19298
658.63	65335.42047
658.8	65362.68974
658.97	65330.87795
659.14	65278.68733
659.309	65358.14317
659.479	65312.71464
659.649	65387.70807
659.819	65303.63701
659.988	65424.13531
660.158	65456.04535
660.328	65335.42047
660.497	65399.08686
660.667	65385.43282
660.837	65335.42047
661.006	65314.98447
661.176	65474.29493
661.346	65364.96328
661.515	65405.91619
661.685	65410.46994
661.854	65367.237
662.024	65394.53483
662.194	65355.87014
662.363	65344.50752
662.533	65396.81076
662.702	65492.55569
662.872	65442.36546
663.041	65333.14913
663.211	65478.85907
663.38	65535.97007
663.55	65399.08686
663.719	65394.53483
663.889	65517.68257
664.058	65474.29493
664.227	65419.5795
664.397	65405.91619
664.566	65403.63958
664.735	65492.55569
664.905	65453.76493
665.074	65453.76493
665.244	65437.80688
665.413	65501.69028
665.582	65415.02437
665.751	65449.20462
665.921	65451.48469
666.09	65460.6067
666.259	65412.74707
666.428	65456.04535
666.598	65460.6067
666.767	65403.63958
666.936	65412.74707
667.105	65392.25907
667.275	65444.64501
667.444	65442.36546
667.613	65349.05206
667.782	65501.69028
667.951	65405.91619
668.12	65433.249
668.289	65444.64501
668.458	65396.81076
668.628	65499.40637
668.797	65467.45003
668.966	65483.42391
669.135	65364.96328
669.304	65435.52786
669.473	65435.52786
669.642	65462.88764
669.811	65465.16875
669.98	65417.30185
670.149	65394.53483
670.318	65510.82768
670.487	65478.85907
670.656	65424.13531
670.824	65469.73149
670.993	65519.96789
671.162	65421.85732
671.331	65408.19298
671.5	65472.01313
671.669	65492.55569
671.838	65508.54306
672.007	65442.36546
672.175	65458.32594
672.344	65469.73149
672.513	65328.60695
672.682	65503.97436
672.85	65419.5795
673.019	65387.70807
673.188	65362.68974
673.357	65417.30185
673.525	65508.54306
673.694	65508.54306
673.863	65458.32594
674.032	65419.5795
674.2	65485.7066
674.369	65485.7066
674.537	65428.69181
674.706	65524.53906
674.875	65476.57692
675.043	65456.04535
675.212	65442.36546
675.381	65442.36546
675.549	65497.12264
675.718	65515.39743
675.886	65467.45003
676.055	65538.2568
676.223	65510.82768
676.392	65446.92473
676.56	65460.6067
676.729	65472.01313
676.897	65533.68351
677.066	65497.12264
677.234	65494.83908
677.403	65597.77441
677.571	65501.69028
677.739	65492.55569
677.908	65515.39743
678.076	65467.45003
678.244	65481.14141
678.413	65531.39714
678.581	65462.88764
678.75	65517.68257
678.918	65522.25339
679.086	65506.25863
679.254	65600.06597
679.423	65410.46994
679.591	65506.25863
679.759	65501.69028
679.928	65529.11093
680.096	65481.14141
680.264	65515.39743
680.432	65476.57692
680.6	65503.97436
680.769	65456.04535
680.937	65556.55707
681.105	65456.04535
681.273	65453.76493
681.441	65508.54306
681.609	65401.36313
681.777	65508.54306
681.945	65474.29493
682.114	65531.39714
682.282	65483.42391
682.45	65515.39743
682.618	65542.8308
682.786	65600.06597
682.954	65494.83908
683.122	65324.06545
683.29	65421.85732
683.458	65529.11093
683.626	65524.53906
683.794	65494.83908
683.962	65613.81909
684.13	65440.08609
684.298	65554.26891
684.465	65487.98945
684.633	65542.8308
684.801	65556.55707
684.969	65531.39714
685.137	65451.48469
685.305	65551.98093
685.473	65492.55569
685.64	65551.98093
685.808	65629.87262
685.976	65424.13531
686.144	65579.44843
686.312	65410.46994
686.479	65572.57914
686.647	65563.4226
686.815	65522.25339
686.983	65540.54372
687.15	65503.97436
687.318	65538.2568
687.486	65506.25863
687.653	65492.55569
687.821	65545.11807
687.989	65494.83908
688.156	65586.31933
688.324	65561.13391
688.492	65503.97436
688.659	65648.23039
688.827	65476.57692
688.994	65570.28974
689.162	65551.98093
689.329	65444.64501
689.497	65572.57914
689.665	65613.81909
689.832	65501.69028
690	65483.42391
690.167	65581.73855
690.335	65542.8308
690.502	65565.71147
690.669	65501.69028
690.837	65545.11807
691.004	65453.76493
691.172	65451.48469
691.339	65435.52786
691.507	65604.64962
691.674	65570.28974
691.841	65579.44843
692.009	65618.40491
692.176	65533.68351
692.343	65579.44843
692.511	65540.54372
692.678	65547.40551
692.845	65533.68351
693.013	65588.60998
693.18	65499.40637
693.347	65519.96789
693.514	65622.99145
693.682	65522.25339
693.849	65568.00052
694.016	65547.40551
694.183	65478.85907
694.35	65662.00636
694.518	65574.86873
694.685	65577.15849
694.852	65572.57914
695.019	65666.59982
695.186	65535.97007
695.353	65458.32594
695.52	65513.11247
695.687	65508.54306
695.855	65526.82491
696.022	65524.53906
696.189	65570.28974
696.356	65588.60998
696.523	65639.05005
696.69	65456.04535
696.857	65666.59982
697.024	65494.83908
697.191	65586.31933
697.358	65497.12264
697.525	65478.85907
697.692	65529.11093
697.858	65604.64962
698.025	65513.11247
698.192	65517.68257
698.359	65618.40491
698.526	65529.11093
698.693	65535.97007
698.86	65579.44843
699.027	65558.8454
699.193	65625.28499
699.36	65579.44843
699.527	65590.90082
699.694	65613.81909
699.861	65613.81909
700.027	65456.04535
700.194	65501.69028
700.361	65517.68257
700.528	65508.54306
700.694	65563.4226
700.861	65600.06597
701.028	65531.39714
701.195	65531.39714
701.361	65522.25339
701.528	65570.28974
701.694	65513.11247
701.861	65639.05005
702.028	65440.08609
702.194	65499.40637
702.361	65570.28974
702.528	65568.00052
702.694	65561.13391
702.861	65415.02437
703.027	65529.11093
703.194	65586.31933
703.36	65531.39714
703.527	65629.87262
703.693	65476.57692
703.86	65465.16875
704.026	65554.26891
704.193	65705.67379
704.359	65551.98093
704.526	65602.3577
