Data from Sun spf650_Subt2__1__10-02-50-593.txt Node

Date: Tue Sep 23 10:02:50 EDT 2025
User: brett
Spectrometer: USB4F03499
Trigger mode: 4
Integration Time (sec): 1.000000E-1
Scans to average: 1
Electric dark correction enabled: true
Nonlinearity correction enabled: true
Boxcar width: 0
XAxis mode: Wavelengths
Number of Pixels in Spectrum: 3648
>>>>>Begin Spectral Data<<<<<
0	-118.906
0.225	-118.906
0.449	-118.906
0.674	-104.78846
0.898	-26.31118
1.123	88.17686
1.347	8.20543
1.572	-21.60642
1.796	70.1954
2.021	47.16868
2.245	-106.33102
2.469	-7.83578
2.694	-65.07109
2.918	-44.56543
3.143	-33.10116
3.367	21.9482
3.591	42.60558
3.815	338.66985
4.04	12551.55078
4.264	17212.92852
4.488	16934.3439
4.712	17005.31335
4.936	17031.78485
5.161	17016.67239
5.385	16882.11867
5.609	17116.80255
5.833	16830.07752
6.057	16939.10322
6.281	17163.67804
6.505	17226.45096
6.729	16955.17549
6.953	17157.68761
7.177	17426.55813
7.401	16737.66478
7.625	17219.54343
7.849	17155.67477
8.073	17703.36652
8.297	17217.33743
8.521	17281.1718
8.744	17219.41834
8.968	17457.497
9.192	17532.23129
9.416	17514.66945
9.64	17647.12941
9.863	17630.64149
10.087	17751.49709
10.311	17416.43954
10.535	17579.78669
10.758	17587.8052
10.982	17259.46282
11.205	17465.20699
11.429	17518.3964
11.653	17855.70472
11.876	17677.84294
12.1	17901.03001
12.323	17836.36427
12.547	17516.465
12.77	17869.91532
12.994	17589.20256
13.217	18326.22073
13.441	17922.80703
13.664	17880.05533
13.887	18146.45755
14.111	18019.01585
14.334	18224.17014
14.557	18291.83386
14.781	18289.74236
15.004	18219.93043
15.227	18155.31749
15.451	18292.35927
15.674	18124.31844
15.897	18366.46346
16.12	18172.9215
16.343	18331.96023
16.567	18583.14806
16.79	18701.37561
17.013	18710.22416
17.236	18700.05798
17.459	18778.88864
17.682	18745.69076
17.905	19091.52702
18.128	18976.29052
18.351	18970.49344
18.574	18809.75759
18.797	19416.2948
19.02	19272.24546
19.243	19728.45305
19.466	19183.58746
19.689	19831.44862
19.911	20061.10385
20.134	19842.74195
20.357	19862.27974
20.58	19746.00648
20.803	20390.74143
21.025	20163.77134
21.248	20115.56884
21.471	20693.94117
21.694	20553.20714
21.916	20698.86082
22.139	21267.15513
22.362	21234.08539
22.584	21163.69727
22.807	21451.87126
23.029	21879.5109
23.252	22043.0046
23.475	22712.1682
23.697	22677.52167
23.92	23090.73536
24.142	22912.60477
24.365	23666.22649
24.587	23689.12859
24.809	24317.736
25.032	24647.42905
25.254	24844.69009
25.477	25503.57462
25.699	25956.83438
25.921	26273.66363
26.144	26800.74992
26.366	27235.60815
26.588	27438.94381
26.81	28218.24937
27.033	28981.31971
27.255	29534.28054
27.477	30255.08283
27.699	31424.46414
27.921	31757.07084
28.144	32549.13495
28.366	33433.51925
28.588	34626.16077
28.81	35500.24752
29.032	37032.56238
29.254	37896.12901
29.476	38747.89185
29.698	39547.01092
29.92	41332.40234
30.142	43237.38978
30.364	43396.82321
30.586	45474.24534
30.808	46770.58018
31.029	48612.99784
31.251	49259.71773
31.473	50860.36256
31.695	51968.75044
31.917	53280.7734
32.139	54113.48904
32.36	56281.32788
32.582	57783.94182
32.804	57932.1562
33.026	60438.79502
33.247	60932.02564
33.469	62759.89925
33.691	63546.23965
33.912	64832.73425
34.134	64749.98811
34.355	65179.43566
34.577	65595.82539
34.798	65517.9276
35.02	65549.97802
35.242	65570.60041
35.463	65644.04326
35.684	65559.14172
35.906	65683.13601
36.127	65584.35678
36.349	65492.76962
36.57	65579.7706
36.792	65591.2374
37.013	65591.2374
37.234	65554.55951
37.456	65527.08129
37.677	65284.40718
37.898	64369.74513
38.119	62474.86118
38.341	61809.70152
38.562	60702.92491
38.783	59012.39608
39.004	56562.72784
39.225	55521.60651
39.447	54789.5626
39.668	53742.5513
39.889	51498.72478
40.11	50233.47438
40.331	48862.58503
40.552	47181.8625
40.773	45460.8664
40.994	43842.99134
41.215	42076.80526
41.436	40141.294
41.657	38036.64788
41.878	36579.22672
42.099	35844.9827
42.32	34193.21756
42.54	33154.67027
42.761	31966.65281
42.982	31056.8496
43.203	30480.61944
43.424	29373.03486
43.645	28630.77201
43.865	28685.79268
44.086	28151.5066
44.307	27343.34764
44.527	27922.1207
44.748	27245.26594
44.969	26973.1481
45.189	26925.5243
45.41	26668.215
45.631	26747.68853
45.851	26569.14719
46.072	26039.85938
46.292	26258.48529
46.513	26072.236
46.733	26263.91326
46.954	26167.71688
47.174	26301.03402
47.395	26248.11849
47.615	26327.18575
47.836	26124.71311
48.056	26106.12793
48.276	25710.07532
48.497	25820.89013
48.717	25750.08751
48.937	25924.88313
49.158	25956.59733
49.378	25968.5642
49.598	26222.46618
49.818	26253.36782
50.038	25919.71844
50.259	25844.05638
50.479	26007.12133
50.699	25717.96817
50.919	26049.53577
51.139	26059.72507
51.359	25979.24947
51.579	26105.58328
51.799	26433.37221
52.02	25987.6549
52.24	26513.35044
52.46	26336.5769
52.68	26509.53848
52.899	26053.10578
53.119	25994.78146
53.339	26965.2777
53.559	26621.34424
53.779	26329.30657
53.999	26887.88755
54.219	26717.93207
54.439	27211.14891
54.658	26954.1689
54.878	27100.02725
55.098	27367.30583
55.318	27460.33374
55.538	27606.14903
55.757	27601.48162
55.977	27164.48297
56.197	27678.54829
56.416	28000.57352
56.636	28204.23
56.855	28219.00953
57.075	27844.68938
57.295	28518.03124
57.514	28753.13976
57.734	28884.46029
57.953	28747.50881
58.173	28677.15054
58.392	28911.69405
58.612	28545.56199
58.831	28713.32062
59.051	29016.56142
59.27	29627.67252
59.489	29399.85592
59.709	29603.39024
59.928	30352.76962
60.147	29885.54817
60.367	30553.89105
60.586	29971.66429
60.805	30078.18502
61.024	30441.6404
61.244	30779.28634
61.463	30257.33805
61.682	30561.1248
61.901	31182.90528
62.12	31348.51736
62.34	31612.24468
62.559	31761.96058
62.778	31642.52168
62.997	31512.79269
63.216	31785.33384
63.435	32087.1568
63.654	32011.61385
63.873	32571.73654
64.092	33098.24848
64.311	33214.76786
64.53	33634.62012
64.749	32981.32533
64.968	33959.07446
65.187	34266.59372
65.405	33956.43315
65.624	33935.45398
65.843	33841.06095
66.062	34403.66962
66.281	34629.5498
66.499	34919.57417
66.718	35194.66715
66.937	35572.06828
67.156	35259.52043
67.374	35713.37136
67.593	36365.44496
67.812	37006.05493
68.03	37425.38742
68.249	37413.82834
68.467	37180.03143
68.686	37191.8352
68.905	38009.17181
69.123	38542.30135
69.342	38618.3629
69.56	38565.55284
69.779	38946.90326
69.997	39983.62412
70.216	40472.66322
70.434	41086.77598
70.652	41838.83783
70.871	43104.18404
71.089	43748.1848
71.307	44595.65131
71.526	45419.01752
71.744	46408.71599
71.962	48754.20576
72.181	49863.02806
72.399	52844.7251
72.617	53566.0281
72.835	55610.12647
73.054	56916.96432
73.272	59203.75233
73.49	63629.32083
73.708	65653.23676
73.926	65644.04326
74.144	65639.44761
74.362	65554.55951
74.58	65588.94368
74.798	65586.65014
75.016	65570.60041
75.234	65602.70874
75.452	65577.47778
75.67	65540.81718
75.888	65614.18462
76.106	65515.63962
76.324	65648.63964
76.542	65653.23676
76.76	65572.89268
76.978	65584.35678
77.196	65616.48034
77.413	65543.10712
77.631	65520.21576
77.849	65627.96169
78.067	65538.52742
78.284	65536.23783
78.502	65593.53131
78.72	65593.53131
78.938	65648.63964
79.155	65630.25851
79.373	65584.35678
79.59	65630.25851
79.808	65593.53131
80.026	65618.77624
80.243	65602.70874
80.461	65492.76962
80.678	65476.77116
80.896	65536.23783
81.113	65566.01639
81.331	65598.11966
81.548	65392.3505
81.766	65531.6592
81.983	65554.55951
82.2	65605.00355
82.418	65660.13382
82.635	65524.7926
82.852	65428.82744
83.07	65575.18514
83.287	65586.65014
83.504	65552.26867
83.722	65479.05612
83.939	65568.30831
84.156	65472.20175
84.373	65625.66505
84.591	65584.35678
84.808	65570.60041
85.025	65531.6592
85.242	65605.00355
85.459	65563.72466
85.676	65575.18514
85.893	65641.74534
86.11	65556.85053
86.327	65559.14172
86.544	65570.60041
86.761	65600.41411
86.978	65531.6592
87.195	65566.01639
87.412	65676.23341
87.629	65621.07233
87.846	65582.0636
88.063	65497.3422
88.28	65575.18514
88.497	65584.35678
88.713	65614.18462
88.93	65639.44761
89.147	65600.41411
89.364	65540.81718
89.58	65568.30831
89.797	65540.81718
90.014	65570.60041
90.231	65517.9276
90.447	65595.82539
90.664	65540.81718
90.881	65549.97802
91.097	65504.2024
91.314	65511.0642
91.53	65588.94368
91.747	65559.14172
91.963	65623.3686
92.18	65575.18514
92.396	65575.18514
92.613	65561.4331
92.829	65660.13382
93.046	65644.04326
93.262	65634.85269
93.479	65543.10712
93.695	65549.97802
93.911	65584.35678
94.128	65634.85269
94.344	65497.3422
94.56	65536.23783
94.777	65683.13601
94.993	65614.18462
95.209	65508.77676
95.426	65355.91776
95.642	65637.15006
95.858	65598.11966
96.074	65582.0636
96.29	65648.63964
96.506	65577.47778
96.723	65559.14172
96.939	65630.25851
97.155	65618.77624
97.371	65568.30831
97.587	65600.41411
97.803	65602.70874
98.019	65593.53131
98.235	65536.23783
98.451	65625.66505
98.667	65479.05612
98.883	65616.48034
99.099	65648.63964
99.315	65621.07233
99.53	65561.4331
99.746	65593.53131
99.962	65627.96169
100.178	65584.35678
100.394	65586.65014
100.61	65653.23676
100.825	65538.52742
101.041	65616.48034
101.257	65563.72466
101.473	65568.30831
101.688	65549.97802
101.904	65607.29854
102.12	65575.18514
102.335	65561.4331
102.551	65607.29854
102.766	65515.63962
102.982	65593.53131
103.198	65614.18462
103.413	65572.89268
103.629	65605.00355
103.844	65598.11966
104.06	65586.65014
104.275	65533.94843
104.49	65552.26867
104.706	65625.66505
104.921	64989.43792
105.137	65572.89268
105.352	65506.48949
105.567	65586.65014
105.783	65563.72466
105.998	65556.85053
106.213	65538.52742
106.429	65623.3686
106.644	65607.29854
106.859	65566.01639
107.074	65440.23561
107.29	65625.66505
107.505	65591.2374
107.72	65520.21576
107.935	65524.7926
108.15	65556.85053
108.365	65637.15006
108.58	65533.94843
108.795	65527.08129
109.01	65533.94843
109.226	65657.83462
109.441	65419.70404
109.656	65637.15006
109.871	65469.91731
110.085	65538.52742
110.3	65568.30831
110.515	65646.34136
110.73	65483.62658
110.945	65595.82539
111.16	65538.52742
111.375	65543.10712
111.59	65591.2374
111.804	65561.4331
112.019	65563.72466
112.234	65600.41411
112.449	65538.52742
112.663	65577.47778
112.878	65600.41411
113.093	65579.7706
113.308	65492.76962
113.522	65577.47778
113.737	65699.24856
113.951	65547.68754
114.166	65579.7706
114.381	65568.30831
114.595	65591.2374
114.81	65561.4331
115.024	65575.18514
115.239	65547.68754
115.453	65609.59372
115.668	65593.53131
115.882	65540.81718
116.097	65593.53131
116.311	65676.23341
116.525	65568.30831
116.74	65683.13601
116.954	65531.6592
117.169	65579.7706
117.383	65561.4331
117.597	65517.9276
117.811	65577.47778
118.026	65492.76962
118.24	65529.37016
118.454	65582.0636
118.668	65584.35678
118.883	65584.35678
119.097	65566.01639
119.311	65566.01639
119.525	65568.30831
119.739	65572.89268
119.953	65593.53131
120.167	65451.64814
120.381	65602.70874
120.595	65568.30831
120.809	65609.59372
121.023	65554.55951
121.237	65593.53131
121.451	65602.70874
121.665	65598.11966
121.879	65566.01639
122.093	65501.91549
122.307	65673.93292
122.521	65614.18462
122.735	65501.91549
122.949	65598.11966
123.163	65653.23676
123.376	65536.23783
123.59	65515.63962
123.804	65572.89268
124.018	65609.59372
124.231	65621.07233
124.445	65644.04326
124.659	65499.62876
124.872	65481.34126
125.086	65577.47778
125.3	65572.89268
125.513	65554.55951
125.727	65609.59372
125.94	65556.85053
126.154	65577.47778
126.368	65625.66505
126.581	65600.41411
126.795	65609.59372
127.008	65605.00355
127.222	65637.15006
127.435	65625.66505
127.648	65623.3686
127.862	65552.26867
128.075	65616.48034
128.289	65533.94843
128.502	65627.96169
128.715	65563.72466
128.929	65678.53409
129.142	65605.00355
129.355	65575.18514
129.568	65513.35182
129.782	65552.26867
129.995	65497.3422
130.208	65598.11966
130.421	65618.77624
130.634	65611.88908
130.848	65533.94843
131.061	65497.3422
131.274	65538.52742
131.487	65637.15006
131.7	65609.59372
131.913	65536.23783
132.126	65582.0636
132.339	65485.91208
132.552	65396.90769
132.765	65504.2024
132.978	65582.0636
133.191	65605.00355
133.404	65540.81718
133.617	65600.41411
133.83	65552.26867
134.043	65630.25851
134.255	65655.5356
134.468	65554.55951
134.681	65650.93811
134.894	65692.34207
135.107	65621.07233
135.319	65543.10712
135.532	65570.60041
135.745	65536.23783
135.958	65588.94368
136.17	65662.43321
136.383	65566.01639
136.596	65614.18462
136.808	65586.65014
137.021	65524.7926
137.233	65616.48034
137.446	65559.14172
137.659	65598.11966
137.871	65449.36528
138.084	65588.94368
138.296	65549.97802
138.509	65584.35678
138.721	65618.77624
138.934	65566.01639
139.146	65552.26867
139.358	65611.88908
139.571	65490.4836
139.783	65495.05582
139.996	65570.60041
140.208	65515.63962
140.42	65522.50409
140.632	65549.97802
140.845	65602.70874
141.057	65662.43321
141.269	65609.59372
141.481	65584.35678
141.694	65630.25851
141.906	65563.72466
142.118	65680.83496
142.33	65556.85053
142.542	65637.15006
142.754	65545.39724
142.967	65669.33248
143.179	65623.3686
143.391	65511.0642
143.603	65602.70874
143.815	65499.62876
144.027	65579.7706
144.239	65472.20175
144.451	65570.60041
144.663	65582.0636
144.875	65506.48949
145.086	65474.48637
145.298	65527.08129
145.51	65605.00355
145.722	65508.77676
145.934	65598.11966
146.146	65602.70874
146.358	65586.65014
146.569	65637.15006
146.781	65552.26867
146.993	65634.85269
147.205	65488.19775
147.416	65588.94368
147.628	65579.7706
147.84	65538.52742
148.051	65586.65014
148.263	65552.26867
148.475	65625.66505
148.686	65591.2374
148.898	65515.63962
149.109	65499.62876
149.321	65627.96169
149.532	65506.48949
149.744	65563.72466
149.955	65540.81718
150.167	65595.82539
150.378	65582.0636
150.59	65611.88908
150.801	65650.93811
151.013	65637.15006
151.224	65499.62876
151.435	65586.65014
151.647	65499.62876
151.858	65554.55951
152.069	65586.65014
152.281	65588.94368
152.492	65559.14172
152.703	65593.53131
152.914	65458.49777
153.126	65554.55951
153.337	65559.14172
153.548	65655.5356
153.759	65549.97802
153.97	65634.85269
154.181	65618.77624
154.392	65529.37016
154.604	65646.34136
154.815	65609.59372
155.026	65543.10712
155.237	65586.65014
155.448	65479.05612
155.659	65561.4331
155.87	65568.30831
156.081	65547.68754
156.292	65616.48034
156.502	65648.63964
156.713	65545.39724
156.924	65522.50409
157.135	65566.01639
157.346	65582.0636
157.557	65545.39724
157.768	65611.88908
157.978	65653.23676
158.189	65556.85053
158.4	65618.77624
158.611	65556.85053
158.821	65506.48949
159.032	65595.82539
159.243	65527.08129
159.453	65575.18514
159.664	65575.18514
159.875	65536.23783
160.085	65611.88908
160.296	65536.23783
160.507	65595.82539
160.717	65621.07233
160.928	65533.94843
161.138	65738.41706
161.349	65593.53131
161.559	65660.13382
161.77	65591.2374
161.98	65614.18462
162.19	65540.81718
162.401	65595.82539
162.611	65529.37016
162.822	65602.70874
163.032	65595.82539
163.242	65609.59372
163.453	65529.37016
163.663	65632.55551
163.873	65556.85053
164.084	65618.77624
164.294	65630.25851
164.504	65579.7706
164.714	65561.4331
164.924	65563.72466
165.135	65614.18462
165.345	65533.94843
165.555	65572.89268
165.765	65520.21576
165.975	65529.37016
166.185	65577.47778
166.395	65605.00355
166.605	65646.34136
166.815	65634.85269
167.025	65593.53131
167.235	65495.05582
167.445	65692.34207
167.655	65556.85053
167.865	65586.65014
168.075	65570.60041
168.285	65586.65014
168.495	65568.30831
168.705	65504.2024
168.915	65479.05612
169.124	65543.10712
169.334	65545.39724
169.544	65549.97802
169.754	65586.65014
169.964	65540.81718
170.173	65515.63962
170.383	65561.4331
170.593	65568.30831
170.802	65524.7926
171.012	65627.96169
171.222	65591.2374
171.431	65632.55551
171.641	65598.11966
171.851	65653.23676
172.06	65611.88908
172.27	65614.18462
172.479	65547.68754
172.689	65609.59372
172.898	65556.85053
173.108	65600.41411
173.317	65533.94843
173.527	65639.44761
173.736	65644.04326
173.945	65570.60041
174.155	65531.6592
174.364	65533.94843
174.574	65570.60041
174.783	65582.0636
174.992	65520.21576
175.202	65579.7706
175.411	65522.50409
175.62	65609.59372
175.829	65623.3686
176.039	65559.14172
176.248	65529.37016
176.457	65582.0636
176.666	65497.3422
176.875	65614.18462
177.084	65543.10712
177.294	65621.07233
177.503	65634.85269
177.712	65492.76962
177.921	65616.48034
178.13	65584.35678
178.339	65671.6326
178.548	65605.00355
178.757	65572.89268
178.966	65533.94843
179.175	65547.68754
179.384	65591.2374
179.593	65568.30831
179.802	65646.34136
180.011	65572.89268
180.219	65593.53131
180.428	65563.72466
180.637	65563.72466
180.846	65533.94843
181.055	65566.01639
181.263	65591.2374
181.472	65488.19775
181.681	65621.07233
181.89	65556.85053
182.098	65490.4836
182.307	65598.11966
182.516	65559.14172
182.724	65575.18514
182.933	65538.52742
183.142	65662.43321
183.35	65559.14172
183.559	65566.01639
183.767	65582.0636
183.976	65611.88908
184.184	65625.66505
184.393	65552.26867
184.601	65611.88908
184.81	65492.76962
185.018	65616.48034
185.227	65554.55951
185.435	65634.85269
185.644	65538.52742
185.852	65680.83496
186.06	65536.23783
186.269	65536.23783
186.477	65531.6592
186.685	65579.7706
186.894	65490.4836
187.102	65575.18514
187.31	65506.48949
187.518	65579.7706
187.727	65664.73278
187.935	65641.74534
188.143	65582.0636
188.351	65549.97802
188.559	65641.74534
188.768	65504.2024
188.976	65524.7926
189.184	65540.81718
189.392	65538.52742
189.6	65547.68754
189.808	65467.63305
190.016	65609.59372
190.224	65598.11966
190.432	65568.30831
190.64	65572.89268
190.848	65563.72466
191.056	65515.63962
191.264	65554.55951
191.472	65579.7706
191.679	65595.82539
191.887	65588.94368
192.095	65671.6326
192.303	65552.26867
192.511	65602.70874
192.719	65678.53409
192.926	65522.50409
193.134	65678.53409
193.342	65607.29854
193.55	65586.65014
193.757	65579.7706
193.965	65556.85053
194.173	65540.81718
194.38	65646.34136
194.588	65621.07233
194.796	65600.41411
195.003	65524.7926
195.211	65621.07233
195.418	65602.70874
195.626	65669.33248
195.833	65563.72466
196.041	65520.21576
196.248	65579.7706
196.456	65522.50409
196.663	65479.05612
196.871	65609.59372
197.078	65561.4331
197.285	65586.65014
197.493	65561.4331
197.7	65442.51776
197.908	65554.55951
198.115	65595.82539
198.322	65566.01639
198.529	65637.15006
198.737	65655.5356
198.944	65561.4331
199.151	65653.23676
199.358	65618.77624
199.566	65696.94621
199.773	65488.19775
199.98	65584.35678
200.187	65614.18462
200.394	65577.47778
200.601	65456.21438
200.809	65667.03254
201.016	65554.55951
201.223	65547.68754
201.43	65662.43321
201.637	65605.00355
201.844	65609.59372
202.051	65683.13601
202.258	65559.14172
202.465	65600.41411
202.672	65671.6326
202.878	65577.47778
203.085	65605.00355
203.292	65559.14172
203.499	65529.37016
203.706	65577.47778
203.913	65575.18514
204.12	65637.15006
204.326	65618.77624
204.533	65630.25851
204.74	65520.21576
204.947	65568.30831
205.153	65579.7706
205.36	65563.72466
205.567	65669.33248
205.773	65662.43321
205.98	65540.81718
206.187	65584.35678
206.393	65575.18514
206.6	65598.11966
206.806	65639.44761
207.013	65513.35182
207.22	65520.21576
207.426	65630.25851
207.633	65570.60041
207.839	65504.2024
208.046	65536.23783
208.252	65538.52742
208.458	65533.94843
208.665	65561.4331
208.871	65600.41411
209.078	65492.76962
209.284	65584.35678
209.49	65595.82539
209.697	65598.11966
209.903	65637.15006
210.109	65602.70874
210.316	65536.23783
210.522	65616.48034
210.728	65554.55951
210.934	65358.19352
211.14	65598.11966
211.347	65657.83462
211.553	65543.10712
211.759	65566.01639
211.965	65520.21576
212.171	65543.10712
212.377	65508.77676
212.583	65570.60041
212.789	65607.29854
212.996	65556.85053
213.202	65522.50409
213.408	65563.72466
213.614	65570.60041
213.82	65618.77624
214.025	65602.70874
214.231	65648.63964
214.437	65607.29854
214.643	65504.2024
214.849	65568.30831
215.055	65575.18514
215.261	65632.55551
215.467	65566.01639
215.672	65646.34136
215.878	65506.48949
216.084	65625.66505
216.29	65566.01639
216.496	65490.4836
216.701	65533.94843
216.907	65627.96169
217.113	65568.30831
217.318	65499.62876
217.524	65611.88908
217.73	65623.3686
217.935	65591.2374
218.141	65538.52742
218.346	65556.85053
218.552	65588.94368
218.758	65556.85053
218.963	65545.39724
219.169	65554.55951
219.374	65566.01639
219.58	65566.01639
219.785	65586.65014
219.991	65513.35182
220.196	65667.03254
220.401	65600.41411
220.607	65570.60041
220.812	65485.91208
221.017	65575.18514
221.223	65522.50409
221.428	65497.3422
221.633	65517.9276
221.839	65566.01639
222.044	65625.66505
222.249	65556.85053
222.454	65549.97802
222.66	65552.26867
222.865	65598.11966
223.07	65451.64814
223.275	65572.89268
223.48	65540.81718
223.686	65625.66505
223.891	65655.5356
224.096	65648.63964
224.301	65465.34897
224.506	65621.07233
224.711	65527.08129
224.916	65607.29854
225.121	65600.41411
225.326	65598.11966
225.531	65625.66505
225.736	65605.00355
225.941	65634.85269
226.146	65584.35678
226.351	65554.55951
226.555	65552.26867
226.76	65547.68754
226.965	65650.93811
227.17	65593.53131
227.375	65616.48034
227.58	65600.41411
227.784	65531.6592
227.989	65690.04027
228.194	65611.88908
228.399	65540.81718
228.603	65632.55551
228.808	65607.29854
229.013	65517.9276
229.217	65570.60041
229.422	65623.3686
229.627	65584.35678
229.831	65605.00355
230.036	65536.23783
230.24	65563.72466
230.445	65540.81718
230.649	65563.72466
230.854	65554.55951
231.058	65593.53131
231.263	65582.0636
231.467	65549.97802
231.672	65588.94368
231.876	65570.60041
232.081	65520.21576
232.285	65543.10712
232.489	65540.81718
232.694	65609.59372
232.898	65520.21576
233.102	65476.77116
233.307	65563.72466
233.511	65586.65014
233.715	65538.52742
233.919	65515.63962
234.124	65630.25851
234.328	65669.33248
234.532	65566.01639
234.736	65527.08129
234.94	65621.07233
235.145	65561.4331
235.349	65549.97802
235.553	65456.21438
235.757	65465.34897
235.961	65623.3686
236.165	65616.48034
236.369	65531.6592
236.573	65533.94843
236.777	65630.25851
236.981	65556.85053
237.185	65492.76962
237.389	65591.2374
237.593	65570.60041
237.797	65540.81718
238.001	65536.23783
238.205	65552.26867
238.409	65607.29854
238.612	65611.88908
238.816	65449.36528
239.02	65575.18514
239.224	65588.94368
239.428	65538.52742
239.631	65561.4331
239.835	65545.39724
240.039	65575.18514
240.243	65524.7926
240.446	65499.62876
240.65	65625.66505
240.854	65724.58671
241.057	65549.97802
241.261	65625.66505
241.464	65646.34136
241.668	65522.50409
241.872	65611.88908
242.075	65572.89268
242.279	65561.4331
242.482	65609.59372
242.686	65600.41411
242.889	65508.77676
243.093	65611.88908
243.296	65515.63962
243.499	65572.89268
243.703	65575.18514
243.906	65634.85269
244.11	65545.39724
244.313	65579.7706
244.516	65554.55951
244.72	65515.63962
244.923	65637.15006
245.126	65481.34126
245.33	65552.26867
245.533	65627.96169
245.736	65554.55951
245.939	65591.2374
246.142	65559.14172
246.346	65607.29854
246.549	65653.23676
246.752	65611.88908
246.955	65588.94368
247.158	65547.68754
247.361	65593.53131
247.564	65533.94843
247.767	65492.76962
247.971	65575.18514
248.174	65543.10712
248.377	65593.53131
248.58	65653.23676
248.783	65618.77624
248.985	65579.7706
249.188	65593.53131
249.391	65545.39724
249.594	65575.18514
249.797	65623.3686
250	65495.05582
250.203	65591.2374
250.406	65598.11966
250.609	65625.66505
250.811	65602.70874
251.014	65602.70874
251.217	65634.85269
251.42	65618.77624
251.622	65451.64814
251.825	65515.63962
252.028	65602.70874
252.231	65607.29854
252.433	65621.07233
252.636	65513.35182
252.838	65540.81718
253.041	65577.47778
253.244	65527.08129
253.446	65476.77116
253.649	65563.72466
253.851	65520.21576
254.054	65598.11966
254.256	65511.0642
254.459	65602.70874
254.661	65545.39724
254.864	65623.3686
255.066	65419.70404
255.269	65582.0636
255.471	65547.68754
255.673	65531.6592
255.876	65602.70874
256.078	65547.68754
256.281	65559.14172
256.483	65575.18514
256.685	65630.25851
256.887	65566.01639
257.09	65556.85053
257.292	65621.07233
257.494	65531.6592
257.696	65591.2374
257.899	65621.07233
258.101	65479.05612
258.303	65552.26867
258.505	65650.93811
258.707	65584.35678
258.909	65611.88908
259.111	65671.6326
259.314	65552.26867
259.516	65602.70874
259.718	65515.63962
259.92	65561.4331
260.122	65588.94368
260.324	65602.70874
260.526	65495.05582
260.728	65559.14172
260.93	65540.81718
261.131	65657.83462
261.333	65616.48034
261.535	65579.7706
261.737	65607.29854
261.939	65533.94843
262.141	65570.60041
262.343	65527.08129
262.544	65545.39724
262.746	65545.39724
262.948	65627.96169
263.15	65577.47778
263.352	65506.48949
263.553	65575.18514
263.755	65627.96169
263.957	65501.91549
264.158	65538.52742
264.36	65561.4331
264.562	65524.7926
264.763	65611.88908
264.965	65543.10712
265.166	65595.82539
265.368	65499.62876
265.569	65605.00355
265.771	65600.41411
265.972	65536.23783
266.174	65605.00355
266.375	65591.2374
266.577	65577.47778
266.778	65545.39724
266.98	65575.18514
267.181	65625.66505
267.383	65646.34136
267.584	65497.3422
267.785	65582.0636
267.987	65602.70874
268.188	65650.93811
268.389	65536.23783
268.591	65646.34136
268.792	65644.04326
268.993	65547.68754
269.194	65602.70874
269.396	65511.0642
269.597	65563.72466
269.798	65614.18462
269.999	65561.4331
270.2	65644.04326
270.401	65506.48949
270.603	65605.00355
270.804	65621.07233
271.005	65623.3686
271.206	65575.18514
271.407	65547.68754
271.608	65501.91549
271.809	65579.7706
272.01	65566.01639
272.211	65593.53131
272.412	65531.6592
272.613	65524.7926
272.814	65627.96169
273.015	65600.41411
273.216	65621.07233
273.416	65595.82539
273.617	65520.21576
273.818	65545.39724
274.019	65588.94368
274.22	65529.37016
274.421	65559.14172
274.621	65595.82539
274.822	65561.4331
275.023	65566.01639
275.224	65572.89268
275.424	65655.5356
275.625	65687.73867
275.826	65582.0636
276.026	65625.66505
276.227	65588.94368
276.428	65540.81718
276.628	65533.94843
276.829	65536.23783
277.029	65588.94368
277.23	65566.01639
277.43	65543.10712
277.631	65499.62876
277.831	65657.83462
278.032	65634.85269
278.232	65588.94368
278.433	65605.00355
278.633	65497.3422
278.834	65607.29854
279.034	65536.23783
279.234	65506.48949
279.435	65577.47778
279.635	65556.85053
279.835	65584.35678
280.036	65495.05582
280.236	65669.33248
280.436	65605.00355
280.637	65577.47778
280.837	65511.0642
281.037	65582.0636
281.237	65582.0636
281.438	65595.82539
281.638	65605.00355
281.838	65600.41411
282.038	65600.41411
282.238	65577.47778
282.438	65586.65014
282.638	65584.35678
282.838	65602.70874
283.038	65556.85053
283.239	65598.11966
283.439	65579.7706
283.639	65483.62658
283.839	65614.18462
284.039	65554.55951
284.238	65579.7706
284.438	65536.23783
284.638	65630.25851
284.838	65607.29854
285.038	65609.59372
285.238	65632.55551
285.438	65572.89268
285.638	65570.60041
285.838	65575.18514
286.037	65540.81718
286.237	65614.18462
286.437	65621.07233
286.637	65598.11966
286.836	65595.82539
287.036	65646.34136
287.236	65543.10712
287.436	65630.25851
287.635	65566.01639
287.835	65575.18514
288.034	65579.7706
288.234	65485.91208
288.434	65552.26867
288.633	65588.94368
288.833	65623.3686
289.032	65678.53409
289.232	65566.01639
289.431	65566.01639
289.631	65602.70874
289.83	65497.3422
290.03	65625.66505
290.229	65614.18462
290.429	65685.43725
290.628	65515.63962
290.828	65648.63964
291.027	65671.6326
291.226	65598.11966
291.426	65559.14172
291.625	65442.51776
291.824	65593.53131
292.024	65593.53131
292.223	65625.66505
292.422	65584.35678
292.621	65602.70874
292.821	65549.97802
293.02	65588.94368
293.219	65517.9276
293.418	65623.3686
293.617	65529.37016
293.817	65616.48034
294.016	65488.19775
294.215	65520.21576
294.414	65662.43321
294.613	65598.11966
294.812	65584.35678
295.011	65611.88908
295.21	65561.4331
295.409	65650.93811
295.608	65696.94621
295.807	65616.48034
296.006	65552.26867
296.205	65586.65014
296.404	65451.64814
296.603	65605.00355
296.802	65490.4836
297.001	65614.18462
297.2	65611.88908
297.398	65630.25851
297.597	65517.9276
297.796	65655.5356
297.995	65639.44761
298.194	65536.23783
298.392	65600.41411
298.591	65593.53131
298.79	65637.15006
298.988	65605.00355
299.187	65600.41411
299.386	65570.60041
299.585	65588.94368
299.783	65572.89268
299.982	65508.77676
300.18	65607.29854
300.379	65595.82539
300.578	65598.11966
300.776	65655.5356
300.975	65561.4331
301.173	65504.2024
301.372	65588.94368
301.57	65607.29854
301.769	65611.88908
301.967	65540.81718
302.166	65588.94368
302.364	65632.55551
302.562	65584.35678
302.761	65538.52742
302.959	65593.53131
303.157	65547.68754
303.356	65621.07233
303.554	65529.37016
303.752	65588.94368
303.951	65554.55951
304.149	65467.63305
304.347	65561.4331
304.546	65531.6592
304.744	65568.30831
304.942	65552.26867
305.14	65621.07233
305.338	65646.34136
305.536	65598.11966
305.735	65600.41411
305.933	65607.29854
306.131	65616.48034
306.329	65529.37016
306.527	65646.34136
306.725	65593.53131
306.923	65540.81718
307.121	65483.62658
307.319	65618.77624
307.517	65621.07233
307.715	65570.60041
307.913	65460.78132
308.111	65547.68754
308.309	65563.72466
308.507	65595.82539
308.705	65584.35678
308.903	65639.44761
309.1	65520.21576
309.298	65524.7926
309.496	65566.01639
309.694	65602.70874
309.892	65627.96169
310.089	65634.85269
310.287	65584.35678
310.485	65614.18462
310.683	65570.60041
310.88	65588.94368
311.078	65595.82539
311.276	65531.6592
311.473	65582.0636
311.671	65572.89268
311.869	65529.37016
312.066	65579.7706
312.264	65577.47778
312.461	65499.62876
312.659	65520.21576
312.856	65531.6592
313.054	65609.59372
313.251	65605.00355
313.449	65517.9276
313.646	65586.65014
313.844	65630.25851
314.041	65586.65014
314.239	65515.63962
314.436	65506.48949
314.634	65474.48637
314.831	65531.6592
315.028	65653.23676
315.226	65586.65014
315.423	65515.63962
315.62	65621.07233
315.817	65568.30831
316.015	65460.78132
316.212	65616.48034
316.409	65536.23783
316.606	65552.26867
316.804	65598.11966
317.001	65632.55551
317.198	65533.94843
317.395	65533.94843
317.592	65533.94843
317.789	65584.35678
317.987	65561.4331
318.184	65614.18462
318.381	65650.93811
318.578	65536.23783
318.775	65646.34136
318.972	65641.74534
319.169	65639.44761
319.366	65531.6592
319.563	65568.30831
319.76	65607.29854
319.957	65598.11966
320.154	65611.88908
320.351	65529.37016
320.547	65552.26867
320.744	65591.2374
320.941	65469.91731
321.138	65584.35678
321.335	65570.60041
321.532	65618.77624
321.728	65538.52742
321.925	65637.15006
322.122	65458.49777
322.319	65685.43725
322.515	65529.37016
322.712	65543.10712
322.909	65655.5356
323.105	65660.13382
323.302	65520.21576
323.499	65499.62876
323.695	65547.68754
323.892	65577.47778
324.089	65533.94843
324.285	65600.41411
324.482	65609.59372
324.678	65660.13382
324.875	65614.18462
325.071	65563.72466
325.268	65568.30831
325.464	65593.53131
325.661	65572.89268
325.857	65586.65014
326.054	65621.07233
326.25	65547.68754
326.446	65545.39724
326.643	65566.01639
326.839	65588.94368
327.035	65669.33248
327.232	65520.21576
327.428	65664.73278
327.624	65657.83462
327.821	65575.18514
328.017	65634.85269
328.213	65611.88908
328.409	65575.18514
328.606	65554.55951
328.802	65556.85053
328.998	65591.2374
329.194	65653.23676
329.39	65531.6592
329.586	65575.18514
329.783	65536.23783
329.979	65563.72466
330.175	65593.53131
330.371	65575.18514
330.567	65591.2374
330.763	65563.72466
330.959	65627.96169
331.155	65600.41411
331.351	65609.59372
331.547	65545.39724
331.743	65685.43725
331.939	65582.0636
332.135	65609.59372
332.33	65508.77676
332.526	65572.89268
332.722	65556.85053
332.918	65524.7926
333.114	65627.96169
333.31	65472.20175
333.506	65499.62876
333.701	65577.47778
333.897	65687.73867
334.093	65533.94843
334.289	65639.44761
334.484	65474.48637
334.68	65490.4836
334.876	65517.9276
335.071	65584.35678
335.267	65513.35182
335.463	65595.82539
335.658	65593.53131
335.854	65703.85382
336.049	65579.7706
336.245	65609.59372
336.441	65605.00355
336.636	65556.85053
336.832	65538.52742
337.027	65456.21438
337.223	65644.04326
337.418	65501.91549
337.613	65634.85269
337.809	65552.26867
338.004	65627.96169
338.2	65570.60041
338.395	65621.07233
338.591	65527.08129
338.786	65634.85269
338.981	65630.25851
339.177	65639.44761
339.372	65566.01639
339.567	65506.48949
339.762	65538.52742
339.958	65706.15673
340.153	65664.73278
340.348	65036.70507
340.543	65586.65014
340.739	65630.25851
340.934	65600.41411
341.129	65547.68754
341.324	65547.68754
341.519	65655.5356
341.714	65719.9781
341.909	65634.85269
342.104	65575.18514
342.299	65584.35678
342.495	65607.29854
342.69	65625.66505
342.885	65611.88908
343.08	65326.34843
343.275	65492.76962
343.469	65595.82539
343.664	65540.81718
343.859	65584.35678
344.054	65646.34136
344.249	65627.96169
344.444	65572.89268
344.639	65607.29854
344.834	65632.55551
345.029	65579.7706
345.223	65554.55951
345.418	65634.85269
345.613	65566.01639
345.808	65584.35678
346.003	65588.94368
346.197	65584.35678
346.392	65568.30831
346.587	65472.20175
346.781	65598.11966
346.976	65556.85053
347.171	65501.91549
347.365	65607.29854
347.56	65605.00355
347.755	65527.08129
347.949	65602.70874
348.144	65632.55551
348.338	65570.60041
348.533	65566.01639
348.727	65616.48034
348.922	65533.94843
349.116	65648.63964
349.311	65577.47778
349.505	65648.63964
349.7	65632.55551
349.894	65621.07233
350.089	65556.85053
350.283	65591.2374
350.477	65575.18514
350.672	65593.53131
350.866	65515.63962
351.06	65570.60041
351.255	65575.18514
351.449	65579.7706
351.643	65579.7706
351.837	65536.23783
352.032	65676.23341
352.226	65625.66505
352.42	65630.25851
352.614	65513.35182
352.809	65616.48034
353.003	65572.89268
353.197	65559.14172
353.391	65595.82539
353.585	65561.4331
353.779	65657.83462
353.973	65513.35182
354.167	65549.97802
354.361	65637.15006
354.555	65524.7926
354.749	65593.53131
354.943	65616.48034
355.137	65552.26867
355.331	65600.41411
355.525	65614.18462
355.719	65552.26867
355.913	65591.2374
356.107	65563.72466
356.301	65593.53131
356.495	65588.94368
356.689	65579.7706
356.883	65552.26867
357.076	65648.63964
357.27	65517.9276
357.464	65614.18462
357.658	65515.63962
357.852	65586.65014
358.045	65554.55951
358.239	65627.96169
358.433	65602.70874
358.626	65614.18462
358.82	65586.65014
359.014	65566.01639
359.207	65575.18514
359.401	65667.03254
359.595	65554.55951
359.788	65607.29854
359.982	65579.7706
360.175	65545.39724
360.369	65602.70874
360.563	65575.18514
360.756	65586.65014
360.95	65563.72466
361.143	65673.93292
361.336	65724.58671
361.53	65630.25851
361.723	65616.48034
361.917	65559.14172
362.11	65618.77624
362.304	65593.53131
362.497	65584.35678
362.69	65458.49777
362.884	65568.30831
363.077	65607.29854
363.27	65600.41411
363.464	65575.18514
363.657	65616.48034
363.85	65533.94843
364.043	65602.70874
364.237	65575.18514
364.43	65547.68754
364.623	65543.10712
364.816	65632.55551
365.009	65522.50409
365.202	65607.29854
365.396	65506.48949
365.589	65568.30831
365.782	65568.30831
365.975	65648.63964
366.168	65538.52742
366.361	65501.91549
366.554	65584.35678
366.747	65616.48034
366.94	65549.97802
367.133	65588.94368
367.326	65600.41411
367.519	65602.70874
367.712	65710.7631
367.905	65598.11966
368.098	65623.3686
368.291	65481.34126
368.484	65584.35678
368.676	65554.55951
368.869	65655.5356
369.062	65595.82539
369.255	65579.7706
369.448	65543.10712
369.64	65568.30831
369.833	65607.29854
370.026	65533.94843
370.219	65650.93811
370.411	65479.05612
370.604	65664.73278
370.797	65568.30831
370.989	65540.81718
371.182	65657.83462
371.375	65529.37016
371.567	65559.14172
371.76	65591.2374
371.952	65660.13382
372.145	65563.72466
372.338	65556.85053
372.53	65566.01639
372.723	65644.04326
372.915	65591.2374
373.108	65618.77624
373.3	65552.26867
373.493	65545.39724
373.685	65543.10712
373.877	65637.15006
374.07	65527.08129
374.262	65517.9276
374.455	65627.96169
374.647	65685.43725
374.839	65520.21576
375.032	65575.18514
375.224	65575.18514
375.416	65634.85269
375.609	65138.22775
375.801	65582.0636
375.993	65627.96169
376.185	65639.44761
376.378	65591.2374
376.57	65570.60041
376.762	65566.01639
376.954	65552.26867
377.146	65538.52742
377.338	65630.25851
377.53	65621.07233
377.723	65536.23783
377.915	65625.66505
378.107	65584.35678
378.299	65616.48034
378.491	65611.88908
378.683	65566.01639
378.875	65607.29854
379.067	65517.9276
379.259	65545.39724
379.451	65593.53131
379.643	65529.37016
379.835	65559.14172
380.027	65513.35182
380.219	65625.66505
380.41	65579.7706
380.602	65572.89268
380.794	65671.6326
380.986	65616.48034
381.178	65586.65014
381.37	65593.53131
381.561	65577.47778
381.753	65495.05582
381.945	65508.77676
382.137	65575.18514
382.328	65605.00355
382.52	65616.48034
382.712	65609.59372
382.903	65513.35182
383.095	65595.82539
383.287	65641.74534
383.478	65554.55951
383.67	65614.18462
383.862	65572.89268
384.053	65566.01639
384.245	65611.88908
384.436	65543.10712
384.628	65570.60041
384.819	65598.11966
385.011	65538.52742
385.202	65591.2374
385.394	65611.88908
385.585	65485.91208
385.777	65607.29854
385.968	65648.63964
386.159	65584.35678
386.351	65577.47778
386.542	65549.97802
386.734	65501.91549
386.925	65602.70874
387.116	65561.4331
387.308	65566.01639
387.499	65627.96169
387.69	65543.10712
387.881	65501.91549
388.073	65577.47778
388.264	65575.18514
388.455	65662.43321
388.646	65529.37016
388.837	65547.68754
389.029	65570.60041
389.22	65595.82539
389.411	65616.48034
389.602	65572.89268
389.793	65607.29854
389.984	65586.65014
390.175	65556.85053
390.366	65543.10712
390.557	65639.44761
390.748	65579.7706
390.939	65655.5356
391.13	65602.70874
391.321	65566.01639
391.512	65598.11966
391.703	65584.35678
391.894	65611.88908
392.085	65634.85269
392.276	65625.66505
392.467	65639.44761
392.658	65621.07233
392.849	65575.18514
393.039	65605.00355
393.23	65588.94368
393.421	65563.72466
393.612	65579.7706
393.803	65586.65014
393.993	65485.91208
394.184	65549.97802
394.375	65637.15006
394.566	65575.18514
394.756	65563.72466
394.947	65527.08129
395.138	65609.59372
395.328	65513.35182
395.519	65533.94843
395.709	65639.44761
395.9	65481.34126
396.091	65609.59372
396.281	65611.88908
396.472	65605.00355
396.662	65630.25851
396.853	65621.07233
397.043	65602.70874
397.234	65607.29854
397.424	65561.4331
397.615	65561.4331
397.805	65570.60041
397.996	65660.13382
398.186	65524.7926
398.376	65506.48949
398.567	65618.77624
398.757	65588.94368
398.947	65719.9781
399.138	65536.23783
399.328	65524.7926
399.518	65641.74534
399.709	65671.6326
399.899	65584.35678
400.089	65621.07233
400.279	65575.18514
400.47	65582.0636
400.66	65579.7706
400.85	65508.77676
401.04	65545.39724
401.23	65520.21576
401.421	65559.14172
401.611	65602.70874
401.801	65543.10712
401.991	65575.18514
402.181	65593.53131
402.371	65561.4331
402.561	65513.35182
402.751	65595.82539
402.941	65547.68754
403.131	65506.48949
403.321	65616.48034
403.511	65566.01639
403.701	65536.23783
403.891	65575.18514
404.081	65572.89268
404.271	65623.3686
404.461	65504.2024
404.651	65632.55551
404.84	65554.55951
405.03	65545.39724
405.22	65621.07233
405.41	65609.59372
405.6	65522.50409
405.789	65527.08129
405.979	65511.0642
406.169	65650.93811
406.359	65584.35678
406.548	65634.85269
406.738	65634.85269
406.928	65508.77676
407.118	65543.10712
407.307	65529.37016
407.497	65577.47778
407.686	65520.21576
407.876	65627.96169
408.066	65607.29854
408.255	65616.48034
408.445	65609.59372
408.634	65536.23783
408.824	65556.85053
409.013	65600.41411
409.203	65522.50409
409.392	65556.85053
409.582	65561.4331
409.771	65655.5356
409.961	65614.18462
410.15	65543.10712
410.34	65554.55951
410.529	65630.25851
410.718	65570.60041
410.908	65442.51776
411.097	65630.25851
411.286	65614.18462
411.476	65644.04326
411.665	65605.00355
411.854	65595.82539
412.044	65639.44761
412.233	65554.55951
412.422	65554.55951
412.611	65572.89268
412.8	65531.6592
412.99	65618.77624
413.179	65538.52742
413.368	65611.88908
413.557	65637.15006
413.746	65588.94368
413.935	65611.88908
414.124	65657.83462
414.313	65522.50409
414.503	65556.85053
414.692	65614.18462
414.881	65501.91549
415.07	65517.9276
415.259	65591.2374
415.448	65515.63962
415.637	65572.89268
415.826	65554.55951
416.015	65646.34136
416.203	65591.2374
416.392	65540.81718
416.581	65602.70874
416.77	65561.4331
416.959	65549.97802
417.148	65609.59372
417.337	65621.07233
417.525	65566.01639
417.714	65547.68754
417.903	65625.66505
418.092	65621.07233
418.281	65554.55951
418.469	65563.72466
418.658	65568.30831
418.847	65598.11966
419.035	65632.55551
419.224	65646.34136
419.413	65623.3686
419.601	65566.01639
419.79	65655.5356
419.979	65591.2374
420.167	65625.66505
420.356	65588.94368
420.544	65552.26867
420.733	65621.07233
420.921	65600.41411
421.11	65552.26867
421.299	65538.52742
421.487	65582.0636
421.675	65577.47778
421.864	65586.65014
422.052	65605.00355
422.241	65485.91208
422.429	65598.11966
422.618	65588.94368
422.806	65566.01639
422.994	65598.11966
423.183	65543.10712
423.371	65598.11966
423.559	65556.85053
423.748	65529.37016
423.936	65602.70874
424.124	65687.73867
424.312	65623.3686
424.501	65566.01639
424.689	65588.94368
424.877	65586.65014
425.065	65584.35678
425.254	65602.70874
425.442	65440.23561
425.63	65508.77676
425.818	65499.62876
426.006	65588.94368
426.194	65495.05582
426.382	65513.35182
426.57	65545.39724
426.758	65561.4331
426.946	65598.11966
427.134	65536.23783
427.323	65614.18462
427.51	65584.35678
427.698	65570.60041
427.886	65540.81718
428.074	65504.2024
428.262	65685.43725
428.45	65575.18514
428.638	65568.30831
428.826	65543.10712
429.014	65616.48034
429.202	65690.04027
429.39	65653.23676
429.577	65513.35182
429.765	65515.63962
429.953	65511.0642
430.141	65586.65014
430.329	65543.10712
430.516	65611.88908
430.704	65451.64814
430.892	65600.41411
431.079	65673.93292
431.267	65515.63962
431.455	65650.93811
431.643	65504.2024
431.83	65552.26867
432.018	65540.81718
432.205	65600.41411
432.393	65648.63964
432.581	65584.35678
432.768	65515.63962
432.956	65520.21576
433.143	65561.4331
433.331	65533.94843
433.518	65600.41411
433.706	65582.0636
433.893	65474.48637
434.081	65607.29854
434.268	65490.4836
434.456	65623.3686
434.643	65611.88908
434.83	65524.7926
435.018	65524.7926
435.205	65607.29854
435.392	65607.29854
435.58	65680.83496
435.767	65522.50409
435.954	65577.47778
436.142	65515.63962
436.329	65616.48034
436.516	65598.11966
436.703	65540.81718
436.891	65501.91549
437.078	65527.08129
437.265	65522.50409
437.452	65531.6592
437.639	65566.01639
437.827	65547.68754
438.014	65529.37016
438.201	65582.0636
438.388	65524.7926
438.575	65575.18514
438.762	65577.47778
438.949	65591.2374
439.136	65536.23783
439.323	65483.62658
439.51	65584.35678
439.697	65506.48949
439.884	65511.0642
440.071	65536.23783
440.258	65508.77676
440.445	65520.21576
440.632	65326.34843
440.819	65529.37016
441.006	65458.49777
441.193	65543.10712
441.38	65506.48949
441.566	65568.30831
441.753	65577.47778
441.94	65511.0642
442.127	65575.18514
442.314	65495.05582
442.5	65472.20175
442.687	65488.19775
442.874	65515.63962
443.061	65522.50409
443.247	65506.48949
443.434	65417.42362
443.621	65584.35678
443.807	65529.37016
443.994	65406.02415
444.181	65543.10712
444.367	65572.89268
444.554	65488.19775
444.74	65513.35182
444.927	65543.10712
445.114	65485.91208
445.3	65360.46945
445.487	65437.95362
445.673	65453.93117
445.86	65483.62658
446.046	65508.77676
446.233	65472.20175
446.419	65504.2024
446.605	65399.18655
446.792	65403.74477
446.978	65543.10712
447.165	65479.05612
447.351	65504.2024
447.537	65517.9276
447.724	65527.08129
447.91	65412.86331
448.096	65437.95362
448.283	65374.12863
448.469	65476.77116
448.655	65460.78132
448.841	65408.3037
449.028	65447.0826
449.214	65433.39018
449.4	65410.58342
449.586	65431.10872
449.773	65403.74477
449.959	65431.10872
450.145	65317.25596
450.331	65447.0826
450.517	65476.77116
450.703	65355.91776
450.889	65449.36528
451.075	65394.62901
451.261	65319.52883
451.447	65312.71075
451.633	65392.3505
451.819	65380.96054
452.005	65310.43839
452.191	65378.68306
452.377	65360.46945
452.563	65337.71784
452.749	65342.2668
452.935	65317.25596
453.121	65278.64315
453.307	65308.16621
453.493	65251.4163
453.679	65292.26564
453.865	65262.75789
454.05	65235.54506
454.236	65280.91315
454.422	65346.81643
454.608	65303.62234
454.794	65324.07506
454.979	65333.16957
455.165	65301.35067
455.351	65242.34602
455.537	65246.88083
455.722	65172.14122
455.908	65253.68428
456.094	65190.24343
456.279	65169.87918
456.465	65135.96815
456.65	65231.01192
456.836	65199.29848
457.022	65187.98008
457.207	65203.82699
457.393	65156.31037
457.578	65208.35616
457.764	65111.12326
457.949	65183.45387
458.135	65122.41397
458.32	65258.22075
458.506	65210.62099
458.691	65174.40342
458.877	65154.04948
459.062	65219.68197
459.248	65226.47944
459.433	65102.0936
459.618	65079.53067
459.804	65176.66579
459.989	65084.04197
460.174	65079.53067
460.36	65106.60811
460.545	65120.15551
460.73	65135.96815
460.915	65124.6726
461.101	65133.70872
461.286	65102.0936
461.471	65120.15551
461.656	65233.27841
461.842	65079.53067
462.027	65108.8656
462.212	65079.53067
462.397	65061.49184
462.582	65093.0665
462.767	64991.68717
462.952	65187.98008
463.138	65072.76491
463.323	64996.18613
463.508	65093.0665
463.693	65052.47625
463.878	65084.04197
464.063	64993.93657
464.248	65029.94837
464.433	65029.94837
464.618	65029.94837
464.803	65025.4447
464.988	65027.69646
465.173	64960.2119
465.357	65000.68572
465.542	65005.18594
465.727	64908.56844
465.912	64957.96483
466.097	65014.18826
466.282	65014.18826
466.467	64957.96483
466.651	64913.05595
466.836	64913.05595
467.021	65070.50998
467.206	64964.7065
467.391	65023.19309
467.575	64984.9399
467.76	64975.94572
467.945	64890.62455
468.129	64922.03279
468.314	64883.89811
468.499	65000.68572
468.683	64872.69042
468.868	64953.47116
469.053	64942.2397
469.237	64926.52214
469.422	64872.69042
469.606	64928.76704
469.791	64991.68717
469.975	64910.81212
470.16	64937.7482
470.344	64901.83834
470.529	64973.69756
470.713	64805.52359
470.898	64966.95403
471.082	64928.76704
471.267	64975.94572
471.451	64960.2119
471.636	65077.27526
471.82	64966.95403
472.004	64836.85125
472.189	64955.71792
472.373	65029.94837
472.557	65011.93744
472.742	64998.43585
472.926	65007.43628
473.11	65018.69036
473.295	64924.27739
473.479	64933.25731
473.663	64942.2397
473.847	65005.18594
474.031	64996.18613
474.216	64991.68717
474.4	65016.43923
474.584	65009.68679
474.768	64971.44956
474.952	64906.32492
475.136	64904.08155
475.32	65036.70507
475.505	64924.27739
475.689	64870.44933
475.873	64944.48569
476.057	64935.50268
476.241	64982.69112
476.425	64908.56844
476.609	64872.69042
476.793	64948.97812
476.977	65018.69036
477.161	64913.05595
477.345	64895.10961
477.529	65011.93744
477.713	64857.00602
477.896	64993.93657
478.08	64839.09007
478.264	64906.32492
478.448	64931.0121
478.632	64861.48652
478.816	65070.50998
478.999	64877.17304
479.183	64960.2119
479.367	64928.76704
479.551	64765.28813
479.735	64868.2084
479.918	64904.08155
480.102	64836.85125
480.286	64874.93165
480.469	64942.2397
480.653	64839.09007
480.837	64854.766
481.02	64881.65627
481.204	64841.32904
481.388	64812.23419
481.571	64713.94577
481.755	64850.28641
481.938	64841.32904
482.122	64877.17304
482.305	64780.92954
482.489	64698.33519
482.673	64742.95582
482.856	64816.70867
483.04	64809.99718
483.223	64801.05061
483.406	64821.18375
483.59	64816.70867
483.773	64760.82049
483.957	64841.32904
484.14	64731.79518
484.323	64696.10569
484.507	64738.49112
484.69	64771.99071
484.874	64843.56815
485.057	64789.87075
485.24	64745.18839
485.423	64881.65627
485.607	64722.8693
485.79	64780.92954
485.973	64736.259
486.156	64671.59076
486.34	64687.18914
486.523	64669.363
486.706	64729.56349
486.889	64801.05061
487.072	64696.10569
487.256	64676.04672
487.439	64736.259
487.622	64678.27491
487.805	64731.79518
487.988	64702.79463
488.171	64671.59076
488.354	64660.45339
488.537	64725.10055
488.72	64678.27491
488.903	64653.77269
489.086	64707.25465
489.269	64667.13538
489.452	64662.68057
489.635	64611.49155
489.818	64502.6862
490.001	64740.7234
490.184	64700.56484
490.367	64698.33519
490.55	64602.59681
490.732	64496.03553
490.915	64640.41517
491.098	64602.59681
491.281	64727.33195
491.464	64653.77269
491.647	64680.50325
491.829	64687.18914
492.012	64595.92725
492.195	64542.61645
492.378	64631.51303
492.56	64487.1699
492.743	64509.33812
492.926	64480.52212
493.108	64620.38856
493.291	64600.37349
493.474	64462.80076
493.656	64478.30647
493.839	64422.95965
494.022	64489.3861
494.204	64418.53558
494.387	64445.08815
494.569	64582.59195
494.752	64451.72935
494.934	64476.09096
495.117	64462.80076
495.299	64500.46917
495.482	64431.80942
495.664	64385.37226
495.847	64467.23027
496.029	64507.12068
496.212	64255.22034
496.394	64478.30647
496.576	64431.80942
496.759	64524.86411
496.941	64347.82364
497.123	64193.61232
497.306	64500.46917
497.488	64414.11205
497.67	64482.73791
497.853	64476.09096
498.035	64350.03131
498.217	64283.85855
498.4	64354.44706
498.582	64504.90337
498.764	64429.59678
498.946	64358.86335
499.128	64372.11539
499.311	64400.8447
499.493	64493.81891
499.675	64361.07169
499.857	64323.54796
500.039	64286.0624
500.221	64323.54796
500.403	64303.69794
500.585	64202.4073
500.767	64264.02976
500.949	64303.69794
501.132	64327.96053
501.314	64361.07169
501.496	64220.00341
501.678	64434.0222
501.859	64290.4705
502.041	64281.65483
502.223	64281.65483
502.405	64314.72441
502.587	64217.80344
502.769	64242.01012
502.951	64239.80886
503.133	64268.43524
503.315	64323.54796
503.497	64297.08363
503.678	64288.26639
503.86	64376.53381
504.042	64171.63381
504.224	64202.4073
504.406	64261.82721
504.587	64316.9301
504.769	64270.63818
504.951	64246.41301
505.132	64354.44706
505.314	64288.26639
505.496	64250.81642
505.678	64316.9301
505.859	64299.28827
506.041	64250.81642
506.222	64266.23244
506.404	64261.82721
506.586	64275.04445
506.767	64211.20433
506.949	64319.13592
507.13	64268.43524
507.312	64277.24778
507.493	64136.49456
507.675	64253.01832
507.856	64250.81642
508.038	64341.20141
508.219	64319.13592
508.401	64316.9301
508.582	64222.2035
508.764	64259.62479
508.945	64226.60407
509.126	64314.72441
509.308	64297.08363
509.489	64281.65483
509.671	64338.99426
509.852	64246.41301
510.033	64338.99426
510.214	64312.51885
510.396	64352.23912
510.577	64418.53558
510.758	64235.40675
510.94	64246.41301
511.121	64281.65483
511.302	64283.85855
511.483	64319.13592
511.664	64255.22034
511.846	64367.69751
512.027	64286.0624
512.208	64350.03131
512.389	64336.78725
512.57	64253.01832
512.751	64290.4705
512.932	64272.84125
513.113	64182.62147
513.294	64305.90297
513.476	64292.67475
513.657	64325.75418
513.838	64400.8447
514.019	64261.82721
514.2	64341.20141
514.381	64286.0624
514.561	64266.23244
514.742	64363.28016
514.923	64294.87912
515.104	64277.24778
515.285	64321.34188
515.466	64352.23912
515.647	64389.79228
515.828	64244.2115
516.009	64288.26639
516.189	64363.28016
516.37	64398.63395
516.551	64372.11539
516.732	64372.11539
516.913	64336.78725
517.093	64365.48877
517.274	64372.11539
517.455	64213.4039
517.636	64286.0624
517.816	64277.24778
517.997	64301.49304
518.178	64308.10813
518.358	64407.47777
518.539	64334.58037
518.72	64316.9301
518.9	64305.90297
519.081	64319.13592
519.261	64268.43524
519.442	64184.81939
519.622	64301.49304
519.803	64305.90297
519.984	64255.22034
520.164	64332.37363
520.345	64312.51885
520.525	64299.28827
520.705	64354.44706
520.886	64250.81642
521.066	64465.01545
521.247	64321.34188
521.427	64325.75418
521.608	64167.23963
521.788	64352.23912
521.968	64154.06014
522.149	64369.90639
522.329	64292.67475
522.509	64400.8447
522.69	64352.23912
522.87	64380.95277
523.05	64407.47777
523.231	64387.5822
523.411	64347.82364
523.591	64294.87912
523.771	64376.53381
523.951	64290.4705
524.132	64272.84125
524.312	64323.54796
524.492	64352.23912
524.672	64297.08363
524.852	64272.84125
525.032	64334.58037
525.213	64301.49304
525.393	64233.20588
525.573	64409.68906
525.753	64261.82721
525.933	64288.26639
526.113	64294.87912
526.293	64398.63395
526.473	64367.69751
526.653	64222.2035
526.833	64358.86335
527.013	64416.32375
527.193	64332.37363
527.373	64347.82364
527.553	64321.34188
527.733	64290.4705
527.913	64378.74322
528.092	64518.20928
528.272	64303.69794
528.452	64361.07169
528.632	64440.66136
528.812	64345.6161
528.992	64294.87912
529.171	64327.96053
529.351	64422.95965
529.531	64416.32375
529.711	64312.51885
529.89	64414.11205
530.07	64305.90297
530.25	64220.00341
530.43	64224.40372
530.609	64347.82364
530.789	64330.16701
530.969	64319.13592
531.148	64387.5822
531.328	64425.17189
531.507	64378.74322
531.687	64292.67475
531.867	64418.53558
532.046	64277.24778
532.226	64383.16244
532.405	64321.34188
532.585	64343.40869
532.764	64365.48877
532.944	64220.00341
533.123	64347.82364
533.303	64398.63395
533.482	64222.2035
533.662	64374.32454
533.841	64316.9301
534.021	64281.65483
534.2	64369.90639
534.379	64414.11205
534.559	64352.23912
534.738	64312.51885
534.917	64453.94336
535.097	64343.40869
535.276	64338.99426
535.455	64297.08363
535.635	64431.80942
535.814	64376.53381
535.993	64308.10813
536.172	64440.66136
536.352	64403.05559
536.531	64422.95965
536.71	64330.16701
536.889	64350.03131
537.068	64389.79228
537.248	64409.68906
537.427	64272.84125
537.606	64343.40869
537.785	64347.82364
537.964	64363.28016
538.143	64427.38427
538.322	64378.74322
538.501	64345.6161
538.68	64400.8447
538.859	64297.08363
539.038	64436.23512
539.217	64436.23512
539.396	64504.90337
539.575	64361.07169
539.754	64343.40869
539.933	64308.10813
540.112	64529.30136
540.291	64367.69751
540.47	64369.90639
540.649	64372.11539
540.828	64529.30136
541.007	64338.99426
541.186	64447.30175
541.364	64347.82364
541.543	64429.59678
541.722	64385.37226
541.901	64422.95965
542.08	64272.84125
542.258	64310.31343
542.437	64453.94336
542.616	64319.13592
542.795	64473.87558
542.973	64429.59678
543.152	64438.44817
543.331	64416.32375
543.509	64462.80076
543.688	64343.40869
543.867	64440.66136
544.045	64453.94336
544.224	64303.69794
544.402	64044.40656
544.581	64407.47777
544.76	64504.90337
544.938	64398.63395
545.117	64367.69751
545.295	64416.32375
545.474	64414.11205
545.652	64489.3861
545.831	64440.66136
546.009	64310.31343
546.188	64414.11205
546.366	64427.38427
546.544	64405.26661
546.723	64400.8447
546.901	64394.21285
547.08	64336.78725
547.258	64447.30175
547.436	64445.08815
547.615	64493.81891
547.793	64420.74755
547.971	64403.05559
548.15	64418.53558
548.328	64365.48877
548.506	64303.69794
548.684	64277.24778
548.863	64438.44817
549.041	64469.44524
549.219	64527.08267
549.397	64389.79228
549.576	64440.66136
549.754	64398.63395
549.932	64425.17189
550.11	64467.23027
550.288	64502.6862
550.466	64589.25896
550.644	64365.48877
550.822	64462.80076
551.001	64502.6862
551.179	64555.93656
551.357	64491.60244
551.535	64434.0222
551.713	64493.81891
551.891	64498.25228
552.069	64542.61645
552.247	64502.6862
552.425	64538.17753
552.603	64538.17753
552.781	64515.99128
552.958	64547.05593
553.136	64524.86411
553.314	64640.41517
553.492	64595.92725
553.67	64622.61317
553.848	64635.96381
554.026	64734.02701
554.204	64716.17643
554.381	64655.99944
554.559	64718.40724
554.737	64792.10642
554.915	64725.10055
555.092	64682.73174
555.27	64756.35344
555.448	64718.40724
555.626	64769.75637
555.803	64857.00602
555.981	64684.96037
556.159	64814.47136
556.336	64823.42152
556.514	64886.1401
556.692	64841.32904
556.869	64814.47136
557.047	64809.99718
557.224	64841.32904
557.402	64857.00602
557.58	64780.92954
557.757	64895.10961
557.935	64993.93657
558.112	64899.59527
558.29	64888.38225
558.467	64993.93657
558.645	64996.18613
558.822	65009.68679
559	64982.69112
559.177	64957.96483
559.354	64933.25731
559.532	64939.99387
559.709	64971.44956
559.887	64933.25731
560.064	65034.45268
560.241	64910.81212
560.419	64931.0121
560.596	64910.81212
560.773	64904.08155
560.951	64886.1401
561.128	64769.75637
561.305	64998.43585
561.482	64939.99387
561.66	64888.38225
561.837	64883.89811
562.014	64933.25731
562.191	65007.43628
562.368	64953.47116
562.546	64886.1401
562.723	64987.18883
562.9	64955.71792
563.077	64881.65627
563.254	64978.19403
563.431	64946.73182
563.608	64859.24619
563.785	64975.94572
563.962	64915.29993
564.139	65005.18594
564.317	64888.38225
564.494	65020.94165
564.671	64823.42152
564.848	64919.78835
565.025	64971.44956
565.201	64998.43585
565.378	64928.76704
565.555	64926.52214
565.732	64962.45912
565.909	64971.44956
566.086	64953.47116
566.263	65002.93575
566.44	64957.96483
566.617	64998.43585
566.794	64919.78835
566.97	64982.69112
567.147	65052.47625
567.324	64955.71792
567.501	65016.43923
567.678	64953.47116
567.854	64975.94572
568.031	65086.29787
568.208	64955.71792
568.384	65020.94165
568.561	64996.18613
568.738	65020.94165
568.915	64998.43585
569.091	65072.76491
569.268	65032.20045
569.444	65081.78624
569.621	65052.47625
569.798	65079.53067
569.974	65023.19309
570.151	65018.69036
570.327	65034.45268
570.504	65007.43628
570.681	65102.0936
570.857	65070.50998
571.034	65079.53067
571.21	65029.94837
571.387	65176.66579
571.563	65149.52817
571.739	64987.18883
571.916	65199.29848
572.092	65124.6726
572.269	65072.76491
572.445	65086.29787
572.622	65133.70872
572.798	65072.76491
572.974	65126.93138
573.151	65183.45387
573.327	65124.6726
573.503	65023.19309
573.68	65185.7169
573.856	65178.92832
574.032	65183.45387
574.208	65063.74614
574.385	65088.55392
574.561	65201.56265
574.737	65174.40342
574.913	65070.50998
575.089	65174.40342
575.266	65178.92832
575.442	65190.24343
575.618	65029.94837
575.794	65151.78874
575.97	65160.83266
576.146	65090.81013
576.322	65156.31037
576.499	65047.96941
576.675	65066.00059
576.851	65068.25521
577.027	64991.68717
577.203	65124.6726
577.379	65165.35559
577.555	65120.15551
577.731	65075.02001
577.907	64749.65397
578.083	65029.94837
578.259	65102.0936
578.435	65077.27526
578.611	64957.96483
578.786	64973.69756
578.962	65025.4447
579.138	65138.22775
579.314	65029.94837
579.49	65102.0936
579.666	65005.18594
579.842	65081.78624
580.017	65081.78624
580.193	65068.25521
580.369	65016.43923
580.545	65041.21033
580.72	64946.73182
580.896	65077.27526
581.072	64966.95403
581.248	65014.18826
581.423	64942.2397
581.599	65045.71622
581.775	65005.18594
581.95	65007.43628
582.126	65034.45268
582.302	64937.7482
582.477	65000.68572
582.653	65061.49184
582.829	65045.71622
583.004	65135.96815
583.18	65032.20045
583.355	65070.50998
583.531	65000.68572
583.706	64978.19403
583.882	65070.50998
584.057	65154.04948
584.233	65016.43923
584.408	64917.54406
584.584	65036.70507
584.759	65099.83658
584.935	65099.83658
585.11	65086.29787
585.285	65120.15551
585.461	65192.50695
585.636	65093.0665
585.812	65111.12326
585.987	65178.92832
586.162	65165.35559
586.338	65106.60811
586.513	65201.56265
586.688	65262.75789
586.863	65140.48751
587.039	65197.03447
587.214	65172.14122
587.389	65167.6173
587.564	65208.35616
587.74	65165.35559
587.915	65333.16957
588.09	65278.64315
588.265	65215.15115
588.44	65292.26564
588.615	65276.37333
588.791	65265.02671
588.966	65319.52883
589.141	65337.71784
589.316	65258.22075
589.491	65271.83418
589.666	65242.34602
589.841	65206.09149
590.016	65317.25596
590.191	65233.27841
590.366	65365.02182
590.541	65383.23818
590.716	65333.16957
590.891	65310.43839
591.066	65406.02415
591.241	65380.96054
591.416	65399.18655
591.591	65387.794
591.766	65387.794
591.941	65501.91549
592.116	65515.63962
592.29	65396.90769
592.465	65444.8001
592.64	65559.14172
592.815	65492.76962
592.99	65543.10712
593.165	65501.91549
593.339	65524.7926
593.514	65495.05582
593.689	65417.42362
593.864	65499.62876
594.038	65527.08129
594.213	65419.70404
594.388	65501.91549
594.562	65479.05612
594.737	65417.42362
594.912	65497.3422
595.086	65554.55951
595.261	65506.48949
595.436	65435.67181
595.61	65456.21438
595.785	65449.36528
595.959	65444.8001
596.134	65485.91208
596.309	65483.62658
596.483	65490.4836
596.658	65479.05612
596.832	65506.48949
597.007	65380.96054
597.181	65538.52742
597.356	65453.93117
597.53	65543.10712
597.704	65515.63962
597.879	65474.48637
598.053	65479.05612
598.228	65392.3505
598.402	65390.07216
598.576	65490.4836
598.751	65406.02415
598.925	65465.34897
599.1	65465.34897
599.274	65511.0642
599.448	65476.77116
599.622	65383.23818
599.797	65460.78132
599.971	65460.78132
600.145	65337.71784
600.32	65433.39018
600.494	65458.49777
600.668	65410.58342
600.842	65399.18655
601.016	65508.77676
601.191	65410.58342
601.365	65201.56265
601.539	65431.10872
601.713	65465.34897
601.887	65374.12863
602.061	65490.4836
602.235	65412.86331
602.409	65483.62658
602.583	65421.98462
602.758	65545.39724
602.932	65483.62658
603.106	65547.68754
603.28	65497.3422
603.454	65451.64814
603.628	65406.02415
603.802	65501.91549
603.976	65485.91208
604.149	65467.63305
604.323	65421.98462
604.497	65499.62876
604.671	65417.42362
604.845	65451.64814
605.019	65490.4836
605.193	65501.91549
605.367	65415.14338
605.541	65447.0826
605.714	65392.3505
605.888	65401.46557
606.062	65472.20175
606.236	65575.18514
606.41	65358.19352
606.583	65483.62658
606.757	65506.48949
606.931	65451.64814
607.105	65485.91208
607.278	65490.4836
607.452	65536.23783
607.626	65401.46557
607.799	65485.91208
607.973	65504.2024
608.147	65444.8001
608.32	65501.91549
608.494	65456.21438
608.668	65483.62658
608.841	65383.23818
609.015	65394.62901
609.188	65447.0826
609.362	65556.85053
609.535	65469.91731
609.709	65495.05582
609.882	65458.49777
610.056	65431.10872
610.229	65460.78132
610.403	65463.06506
610.576	65358.19352
610.75	65431.10872
610.923	65460.78132
611.097	65517.9276
611.27	65385.516
611.443	65451.64814
611.617	65552.26867
611.79	65556.85053
611.963	65449.36528
612.137	65460.78132
612.31	65456.21438
612.483	65483.62658
612.657	65467.63305
612.83	65524.7926
613.003	65522.50409
613.177	65483.62658
613.35	65501.91549
613.523	65460.78132
613.696	65437.95362
613.869	65575.18514
614.043	65412.86331
614.216	65460.78132
614.389	65499.62876
614.562	65421.98462
614.735	65476.77116
614.908	65485.91208
615.082	65419.70404
615.255	65465.34897
615.428	65428.82744
615.601	65506.48949
615.774	65479.05612
615.947	65433.39018
616.12	65337.71784
616.293	65374.12863
616.466	65387.794
616.639	65406.02415
616.812	65437.95362
616.985	65355.91776
617.158	65435.67181
617.331	65453.93117
617.504	65433.39018
617.677	65511.0642
617.85	65465.34897
618.022	65479.05612
618.195	65460.78132
618.368	65396.90769
618.541	65383.23818
618.714	65463.06506
618.887	65451.64814
619.059	65417.42362
619.232	65460.78132
619.405	65303.62234
619.578	65333.16957
619.751	65442.51776
619.923	65419.70404
620.096	65351.36675
620.269	65371.85167
620.441	65421.98462
620.614	65463.06506
620.787	65390.07216
620.96	65403.74477
621.132	65308.16621
621.305	65280.91315
621.477	65337.71784
621.65	65424.26539
621.823	65437.95362
621.995	65333.16957
622.168	65342.2668
622.34	65344.54153
622.513	65355.91776
622.685	65351.36675
622.858	65333.16957
623.03	65392.3505
623.203	65419.70404
623.375	65371.85167
623.548	65412.86331
623.72	65344.54153
623.893	65346.81643
624.065	65369.57488
624.238	65362.74555
624.41	65463.06506
624.582	65301.35067
624.755	65378.68306
624.927	65355.91776
625.1	65349.09151
625.272	65421.98462
625.444	65314.98327
625.617	65228.7456
625.789	65305.89419
625.961	65367.29827
626.133	65303.62234
626.306	65289.99481
626.478	65289.99481
626.65	65274.10367
626.822	65355.91776
626.995	65253.68428
627.167	65265.02671
627.339	65335.44362
627.511	65226.47944
627.683	65265.02671
627.855	65235.54506
628.027	65314.98327
628.2	65249.14848
628.372	65274.10367
628.544	65276.37333
628.716	65274.10367
628.888	65251.4163
629.06	65187.98008
629.232	65351.36675
629.404	65276.37333
629.576	65192.50695
629.748	65292.26564
629.92	65154.04948
630.092	65142.74743
630.264	65240.07887
630.436	65317.25596
630.608	65249.14848
630.78	65244.61334
630.952	65287.72414
631.124	65210.62099
631.295	65233.27841
631.467	65285.45364
631.639	65201.56265
631.811	65280.91315
631.983	65260.48924
632.155	65260.48924
632.326	65255.95243
632.498	65251.4163
632.67	65260.48924
632.842	65294.53664
633.014	65240.07887
633.185	65183.45387
633.357	65271.83418
633.529	65145.00751
633.7	65178.92832
633.872	65294.53664
634.044	65296.80782
634.215	65185.7169
634.387	65260.48924
634.559	65337.71784
634.73	65280.91315
634.902	65328.62197
635.074	65265.02671
635.245	65255.95243
635.417	65278.64315
635.588	65192.50695
635.76	65337.71784
635.931	65324.07506
636.103	65337.71784
636.274	65233.27841
636.446	65285.45364
636.617	65219.68197
636.789	65312.71075
636.96	65305.89419
637.132	65326.34843
637.303	65314.98327
637.474	65346.81643
637.646	65265.02671
637.817	65339.99223
637.989	65292.26564
638.16	65351.36675
638.331	65374.12863
638.503	65237.81188
638.674	65269.56486
638.845	65374.12863
639.017	65285.45364
639.188	65287.72414
639.359	65376.40576
639.53	65362.74555
639.702	65292.26564
639.873	65371.85167
640.044	65335.44362
640.215	65346.81643
640.387	65246.88083
640.558	65228.7456
640.729	65201.56265
640.9	65231.01192
641.071	65242.34602
641.242	65246.88083
641.413	65258.22075
641.585	65303.62234
641.756	65231.01192
641.927	65358.19352
642.098	65283.18331
642.269	65280.91315
642.44	65346.81643
642.611	65274.10367
642.782	65280.91315
642.953	65190.24343
643.124	65233.27841
643.295	65355.91776
643.466	65221.94763
643.637	65285.45364
643.808	65267.2957
643.979	65199.29848
644.15	65172.14122
644.32	65226.47944
644.491	65244.61334
644.662	65392.3505
644.833	65269.56486
645.004	65235.54506
645.175	65278.64315
645.346	65215.15115
645.516	65308.16621
645.687	65260.48924
645.858	65262.75789
646.029	65212.88599
646.199	65294.53664
646.37	65255.95243
646.541	65319.52883
646.712	65192.50695
646.882	65240.07887
647.053	65271.83418
647.224	65267.2957
647.394	65253.68428
647.565	65258.22075
647.736	65296.80782
647.906	65330.89569
648.077	65258.22075
648.248	65328.62197
648.418	65301.35067
648.589	65344.54153
648.759	65285.45364
648.93	65287.72414
649.1	65346.81643
649.271	65215.15115
649.441	65224.21345
649.612	65296.80782
649.782	65221.94763
649.953	65203.82699
650.123	65255.95243
650.294	65197.03447
650.464	65237.81188
650.635	64944.48569
650.805	65260.48924
650.975	65133.70872
651.146	65296.80782
651.316	65251.4163
651.487	65280.91315
651.657	65283.18331
651.827	65215.15115
651.998	65337.71784
652.168	65224.21345
652.338	65287.72414
652.508	65353.64217
652.679	65276.37333
652.849	65197.03447
653.019	65233.27841
653.189	65228.7456
653.36	65242.34602
653.53	65337.71784
653.7	65244.61334
653.87	65358.19352
654.04	65292.26564
654.211	65310.43839
654.381	65215.15115
654.551	65328.62197
654.721	65237.81188
654.891	65312.71075
655.061	65235.54506
655.231	65346.81643
655.401	65360.46945
655.571	65326.34843
655.741	65244.61334
655.911	65292.26564
656.081	65231.01192
656.251	65362.74555
656.421	65258.22075
656.591	65353.64217
656.761	65269.56486
656.931	65394.62901
657.101	65360.46945
657.271	65305.89419
657.441	65283.18331
657.611	65396.90769
657.781	65287.72414
657.951	65330.89569
658.121	65269.56486
658.291	65265.02671
658.46	65371.85167
658.63	65299.07916
658.8	65326.34843
658.97	65294.53664
659.14	65242.34602
659.309	65321.80186
659.479	65276.37333
659.649	65351.36675
659.819	65267.2957
659.988	65387.794
660.158	65419.70404
660.328	65299.07916
660.497	65362.74555
660.667	65349.09151
660.837	65299.07916
661.006	65278.64315
661.176	65437.95362
661.346	65328.62197
661.515	65369.57488
661.685	65374.12863
661.854	65330.89569
662.024	65358.19352
662.194	65319.52883
662.363	65308.16621
662.533	65360.46945
662.702	65456.21438
662.872	65406.02415
663.041	65296.80782
663.211	65442.51776
663.38	65499.62876
663.55	65362.74555
663.719	65358.19352
663.889	65481.34126
664.058	65437.95362
664.227	65383.23818
664.397	65369.57488
664.566	65367.29827
664.735	65456.21438
664.905	65417.42362
665.074	65417.42362
665.244	65401.46557
665.413	65465.34897
665.582	65378.68306
665.751	65412.86331
665.921	65415.14338
666.09	65424.26539
666.259	65376.40576
666.428	65419.70404
666.598	65424.26539
666.767	65367.29827
666.936	65376.40576
667.105	65355.91776
667.275	65408.3037
667.444	65406.02415
667.613	65312.71075
667.782	65465.34897
667.951	65369.57488
668.12	65396.90769
668.289	65408.3037
668.458	65360.46945
668.628	65463.06506
668.797	65431.10872
668.966	65447.0826
669.135	65328.62197
669.304	65399.18655
669.473	65399.18655
669.642	65426.54632
669.811	65428.82744
669.98	65380.96054
670.149	65358.19352
670.318	65474.48637
670.487	65442.51776
670.656	65387.794
670.824	65433.39018
670.993	65483.62658
671.162	65385.516
671.331	65371.85167
671.5	65435.67181
671.669	65456.21438
671.838	65472.20175
672.007	65406.02415
672.175	65421.98462
672.344	65433.39018
672.513	65292.26564
672.682	65467.63305
672.85	65383.23818
673.019	65351.36675
673.188	65326.34843
673.357	65380.96054
673.525	65472.20175
673.694	65472.20175
673.863	65421.98462
674.032	65383.23818
674.2	65449.36528
674.369	65449.36528
674.537	65392.3505
674.706	65488.19775
674.875	65440.23561
675.043	65419.70404
675.212	65406.02415
675.381	65406.02415
675.549	65460.78132
675.718	65479.05612
675.886	65431.10872
676.055	65501.91549
676.223	65474.48637
676.392	65410.58342
676.56	65424.26539
676.729	65435.67181
676.897	65497.3422
677.066	65460.78132
677.234	65458.49777
677.403	65561.4331
677.571	65465.34897
677.739	65456.21438
677.908	65479.05612
678.076	65431.10872
678.244	65444.8001
678.413	65495.05582
678.581	65426.54632
678.75	65481.34126
678.918	65485.91208
679.086	65469.91731
679.254	65563.72466
679.423	65374.12863
679.591	65469.91731
679.759	65465.34897
679.928	65492.76962
680.096	65444.8001
680.264	65479.05612
680.432	65440.23561
680.6	65467.63305
680.769	65419.70404
680.937	65520.21576
681.105	65419.70404
681.273	65417.42362
681.441	65472.20175
681.609	65365.02182
681.777	65472.20175
681.945	65437.95362
682.114	65495.05582
682.282	65447.0826
682.45	65479.05612
682.618	65506.48949
682.786	65563.72466
682.954	65458.49777
683.122	65287.72414
683.29	65385.516
683.458	65492.76962
683.626	65488.19775
683.794	65458.49777
683.962	65577.47778
684.13	65403.74477
684.298	65517.9276
684.465	65451.64814
684.633	65506.48949
684.801	65520.21576
684.969	65495.05582
685.137	65415.14338
685.305	65515.63962
685.473	65456.21438
685.64	65515.63962
685.808	65593.53131
685.976	65387.794
686.144	65543.10712
686.312	65374.12863
686.479	65536.23783
686.647	65527.08129
686.815	65485.91208
686.983	65504.2024
687.15	65467.63305
687.318	65501.91549
687.486	65469.91731
687.653	65456.21438
687.821	65508.77676
687.989	65458.49777
688.156	65549.97802
688.324	65524.7926
688.492	65467.63305
688.659	65611.88908
688.827	65440.23561
688.994	65533.94843
689.162	65515.63962
689.329	65408.3037
689.497	65536.23783
689.665	65577.47778
689.832	65465.34897
690	65447.0826
690.167	65545.39724
690.335	65506.48949
690.502	65529.37016
690.669	65465.34897
690.837	65508.77676
691.004	65417.42362
691.172	65415.14338
691.339	65399.18655
691.507	65568.30831
691.674	65533.94843
691.841	65543.10712
692.009	65582.0636
692.176	65497.3422
692.343	65543.10712
692.511	65504.2024
692.678	65511.0642
692.845	65497.3422
693.013	65552.26867
693.18	65463.06506
693.347	65483.62658
693.514	65586.65014
693.682	65485.91208
693.849	65531.6592
694.016	65511.0642
694.183	65442.51776
694.35	65625.66505
694.518	65538.52742
694.685	65540.81718
694.852	65536.23783
695.019	65630.25851
695.186	65499.62876
695.353	65421.98462
695.52	65476.77116
695.687	65472.20175
695.855	65490.4836
696.022	65488.19775
696.189	65533.94843
696.356	65552.26867
696.523	65602.70874
696.69	65419.70404
696.857	65630.25851
697.024	65458.49777
697.191	65549.97802
697.358	65460.78132
697.525	65442.51776
697.692	65492.76962
697.858	65568.30831
698.025	65476.77116
698.192	65481.34126
698.359	65582.0636
698.526	65492.76962
698.693	65499.62876
698.86	65543.10712
699.027	65522.50409
699.193	65588.94368
699.36	65543.10712
699.527	65554.55951
699.694	65577.47778
699.861	65577.47778
700.027	65419.70404
700.194	65465.34897
700.361	65481.34126
700.528	65472.20175
700.694	65527.08129
700.861	65563.72466
701.028	65495.05582
701.195	65495.05582
701.361	65485.91208
701.528	65533.94843
701.694	65476.77116
701.861	65602.70874
702.028	65403.74477
702.194	65463.06506
702.361	65533.94843
702.528	65531.6592
702.694	65524.7926
702.861	65378.68306
703.027	65492.76962
703.194	65549.97802
703.36	65495.05582
703.527	65593.53131
703.693	65440.23561
703.86	65428.82744
704.026	65517.9276
704.193	65669.33248
704.359	65515.63962
704.526	65566.01639
