Data from Sun blanked_Subt2__1__09-54-27-048.txt Node

Date: Tue Sep 23 09:54:27 EDT 2025
User: brett
Spectrometer: USB4F03499
Trigger mode: 4
Integration Time (sec): 1.000000E-1
Scans to average: 1
Electric dark correction enabled: true
Nonlinearity correction enabled: true
Boxcar width: 0
XAxis mode: Wavelengths
Number of Pixels in Spectrum: 3648
>>>>>Begin Spectral Data<<<<<
0	-59.29331
0.225	-59.29331
0.449	-59.29331
0.674	-135.43361
0.898	-100.76823
1.123	-116.19597
1.347	-169.20508
1.572	-116.44539
1.796	-38.32571
2.021	-98.02001
2.245	-83.9636
2.469	-114.1152
2.694	-111.53019
2.918	3.05777
3.143	85.54382
3.367	128.78348
3.591	622.92334
3.815	2185.28372
4.04	65578.16733
4.264	65651.56371
4.488	65573.58619
4.712	65520.95448
4.936	65557.55786
5.161	65688.33186
5.385	65646.97099
5.609	65591.91505
5.833	65530.10106
6.057	65562.13649
6.281	65594.20696
6.505	65628.60739
6.729	65525.52741
6.953	65681.43425
7.177	65571.29589
7.401	65589.62331
7.625	65569.00577
7.849	65612.54879
8.073	65633.1972
8.297	65585.04038
8.521	65628.60739
8.744	65637.78773
8.968	65663.04871
9.192	65660.75134
9.416	65683.73327
9.64	65637.78773
9.863	65635.49237
10.087	65628.60739
10.311	65624.01831
10.535	65546.11441
10.758	65509.52524
10.982	65598.79134
11.205	65536.96286
11.429	65594.20696
11.653	65582.74918
11.876	65534.67541
12.1	65624.01831
12.323	65660.75134
12.547	65612.54879
12.77	65635.49237
12.994	65557.55786
13.217	65617.13606
13.441	65619.42996
13.664	65635.49237
13.887	65624.01831
14.111	65591.91505
14.334	65486.67998
14.557	65582.74918
14.781	65564.42607
15.004	65539.25048
15.227	65559.84708
15.451	65640.08327
15.674	65536.96286
15.897	65488.96371
16.12	65589.62331
16.343	65596.49906
16.567	65697.53126
16.79	65614.84233
17.013	65495.81597
17.236	65603.37643
17.459	65582.74918
17.682	65594.20696
17.905	65582.74918
18.128	65640.08327
18.351	65589.62331
18.574	65550.69125
18.797	65617.13606
19.02	65582.74918
19.243	65646.97099
19.466	65552.97994
19.689	65624.01831
19.911	65642.37899
20.134	65651.56371
20.357	65573.58619
20.58	65587.33175
20.803	65681.43425
21.025	65580.45816
21.248	65603.37643
21.471	65541.53828
21.694	65573.58619
21.916	65603.37643
22.139	65683.73327
22.362	65607.96225
22.584	65614.84233
22.807	65573.58619
23.029	65578.16733
23.252	65566.71583
23.475	65527.81415
23.697	65672.24001
23.92	65619.42996
24.142	65573.58619
24.365	65559.84708
24.587	65582.74918
24.809	65578.16733
25.032	65520.95448
25.254	65536.96286
25.477	65619.42996
25.699	65591.91505
25.921	65582.74918
26.144	65539.25048
26.366	65656.15716
26.588	65559.84708
26.81	65637.78773
27.033	65603.37643
27.255	65509.52524
27.477	65587.33175
27.699	65596.49906
27.921	65610.25543
28.144	65578.16733
28.366	65559.84708
28.588	65692.93119
28.81	65672.24001
29.032	65575.87667
29.254	65596.49906
29.476	65566.71583
29.698	65596.49906
29.92	65591.91505
30.142	65621.72405
30.364	65605.66925
30.586	65637.78773
30.808	65679.13541
31.029	65644.6749
31.251	65626.31276
31.473	65571.29589
31.695	65598.79134
31.917	65589.62331
32.139	65569.00577
32.36	65530.10106
32.582	65660.75134
32.804	65651.56371
33.026	65504.95477
33.247	65566.71583
33.469	65624.01831
33.691	65569.00577
33.912	65660.75134
34.134	65468.41642
34.355	65644.6749
34.577	65621.72405
34.798	65543.82625
35.02	65575.87667
35.242	65596.49906
35.463	65669.94191
35.684	65585.04038
35.906	65709.03466
36.127	65610.25543
36.349	65518.66828
36.57	65605.66925
36.792	65617.13606
37.013	65617.13606
37.234	65580.45816
37.456	65552.97994
37.677	65653.86034
37.898	65594.20696
38.119	65667.64399
38.341	65564.42607
38.562	65617.13606
38.783	65569.00577
39.004	65587.33175
39.225	65640.08327
39.447	65569.00577
39.668	65605.66925
39.889	65667.64399
40.11	65594.20696
40.331	65514.0964
40.552	65674.53829
40.773	65578.16733
40.994	65614.84233
41.215	65587.33175
41.436	65637.78773
41.657	65578.16733
41.878	65571.29589
42.099	65649.26725
42.32	65594.20696
42.54	65536.96286
42.761	65601.08379
42.982	65635.49237
43.203	65651.56371
43.424	65658.45416
43.645	65569.00577
43.865	65605.66925
44.086	65569.00577
44.307	65617.13606
44.527	65669.94191
44.748	65578.16733
44.969	65605.66925
45.189	65635.49237
45.41	65594.20696
45.631	65482.11304
45.851	65564.42607
46.072	65605.66925
46.292	65518.66828
46.513	65640.08327
46.733	65493.53171
46.954	65619.42996
47.174	65681.43425
47.395	65699.83157
47.615	65550.69125
47.836	65543.82625
48.056	65651.56371
48.276	65607.96225
48.497	65541.53828
48.717	65546.11441
48.937	65504.95477
49.158	65626.31276
49.378	65624.01831
49.598	65598.79134
49.818	65527.81415
50.038	65532.38815
50.259	65640.08327
50.479	65676.83676
50.699	65605.66925
50.919	65601.08379
51.139	65582.74918
51.359	65610.25543
51.579	65628.60739
51.799	65626.31276
52.02	65612.54879
52.24	65575.87667
52.46	65617.13606
52.68	65633.1972
52.899	65578.16733
53.119	65603.37643
53.339	65644.6749
53.559	65594.20696
53.779	65514.0964
53.999	65534.67541
54.219	65470.69875
54.439	65656.15716
54.658	65690.63143
54.878	65591.91505
55.098	65630.9022
55.318	65569.00577
55.538	65541.53828
55.757	65591.91505
55.977	65603.37643
56.197	65532.38815
56.416	65605.66925
56.636	65603.37643
56.855	65626.31276
57.075	65541.53828
57.295	65637.78773
57.514	65679.13541
57.734	65575.87667
57.953	65591.91505
58.173	65582.74918
58.392	65619.42996
58.612	65628.60739
58.831	65633.1972
59.051	65571.29589
59.27	65504.95477
59.489	65587.33175
59.709	65601.08379
59.928	65621.72405
60.147	65605.66925
60.367	65630.9022
60.586	65552.97994
60.805	65612.54879
61.024	65594.20696
61.244	65674.53829
61.463	65607.96225
61.682	65585.04038
61.901	65573.58619
62.12	65630.9022
62.34	65594.20696
62.559	65598.79134
62.778	65475.26394
62.997	65619.42996
63.216	65663.04871
63.435	65656.15716
63.654	65504.95477
63.873	65617.13606
64.092	65603.37643
64.311	65543.82625
64.53	65582.74918
64.749	65601.08379
64.968	65589.62331
65.187	65686.03247
65.405	65603.37643
65.624	65598.79134
65.843	65578.16733
66.062	65587.33175
66.281	65550.69125
66.499	65674.53829
66.718	65656.15716
66.937	65573.58619
67.156	65589.62331
67.374	65628.60739
67.593	65491.24762
67.812	65598.79134
68.03	65610.25543
68.249	65658.45416
68.467	65628.60739
68.686	65562.13649
68.905	65550.69125
69.123	65720.5427
69.342	65594.20696
69.56	65624.01831
69.779	65697.53126
69.997	65571.29589
70.216	65612.54879
70.434	65587.33175
70.652	65557.55786
70.871	65603.37643
71.089	65630.9022
71.307	65672.24001
71.526	65580.45816
71.744	65637.78773
71.962	65630.9022
72.181	65635.49237
72.399	65628.60739
72.617	65585.04038
72.835	65569.00577
73.054	65637.78773
73.272	65614.84233
73.49	65626.31276
73.708	65679.13541
73.926	65669.94191
74.144	65665.34626
74.362	65580.45816
74.58	65614.84233
74.798	65612.54879
75.016	65596.49906
75.234	65628.60739
75.452	65603.37643
75.67	65566.71583
75.888	65640.08327
76.106	65541.53828
76.324	65674.53829
76.542	65679.13541
76.76	65598.79134
76.978	65610.25543
77.196	65642.37899
77.413	65569.00577
77.631	65546.11441
77.849	65653.86034
78.067	65564.42607
78.284	65562.13649
78.502	65619.42996
78.72	65619.42996
78.938	65674.53829
79.155	65656.15716
79.373	65610.25543
79.59	65656.15716
79.808	65619.42996
80.026	65644.6749
80.243	65628.60739
80.461	65518.66828
80.678	65502.66981
80.896	65562.13649
81.113	65591.91505
81.331	65624.01831
81.548	65418.24915
81.766	65557.55786
81.983	65580.45816
82.2	65630.9022
82.418	65686.03247
82.635	65550.69125
82.852	65454.72609
83.07	65601.08379
83.287	65612.54879
83.504	65578.16733
83.722	65504.95477
83.939	65594.20696
84.156	65498.10041
84.373	65651.56371
84.591	65610.25543
84.808	65596.49906
85.025	65557.55786
85.242	65630.9022
85.459	65589.62331
85.676	65601.08379
85.893	65667.64399
86.11	65582.74918
86.327	65585.04038
86.544	65596.49906
86.761	65626.31276
86.978	65557.55786
87.195	65591.91505
87.412	65702.13206
87.629	65646.97099
87.846	65607.96225
88.063	65523.24086
88.28	65601.08379
88.497	65610.25543
88.713	65640.08327
88.93	65665.34626
89.147	65626.31276
89.364	65566.71583
89.58	65594.20696
89.797	65566.71583
90.014	65596.49906
90.231	65543.82625
90.447	65621.72405
90.664	65566.71583
90.881	65575.87667
91.097	65530.10106
91.314	65536.96286
91.53	65614.84233
91.747	65585.04038
91.963	65649.26725
92.18	65601.08379
92.396	65601.08379
92.613	65587.33175
92.829	65686.03247
93.046	65669.94191
93.262	65660.75134
93.479	65569.00577
93.695	65575.87667
93.911	65610.25543
94.128	65660.75134
94.344	65523.24086
94.56	65562.13649
94.777	65709.03466
94.993	65640.08327
95.209	65534.67541
95.426	65381.81641
95.642	65663.04871
95.858	65624.01831
96.074	65607.96225
96.29	65674.53829
96.506	65603.37643
96.723	65585.04038
96.939	65656.15716
97.155	65644.6749
97.371	65594.20696
97.587	65626.31276
97.803	65628.60739
98.019	65619.42996
98.235	65562.13649
98.451	65651.56371
98.667	65504.95477
98.883	65642.37899
99.099	65674.53829
99.315	65646.97099
99.53	65587.33175
99.746	65619.42996
99.962	65653.86034
100.178	65610.25543
100.394	65612.54879
100.61	65679.13541
100.825	65564.42607
101.041	65642.37899
101.257	65589.62331
101.473	65594.20696
101.688	65575.87667
101.904	65633.1972
102.12	65601.08379
102.335	65587.33175
102.551	65633.1972
102.766	65541.53828
102.982	65619.42996
103.198	65640.08327
103.413	65598.79134
103.629	65630.9022
103.844	65624.01831
104.06	65612.54879
104.275	65559.84708
104.49	65578.16733
104.706	65651.56371
104.921	65015.33658
105.137	65598.79134
105.352	65532.38815
105.567	65612.54879
105.783	65589.62331
105.998	65582.74918
106.213	65564.42607
106.429	65649.26725
106.644	65633.1972
106.859	65591.91505
107.074	65466.13426
107.29	65651.56371
107.505	65617.13606
107.72	65546.11441
107.935	65550.69125
108.15	65582.74918
108.365	65663.04871
108.58	65559.84708
108.795	65552.97994
109.01	65559.84708
109.226	65683.73327
109.441	65445.60269
109.656	65663.04871
109.871	65495.81597
110.085	65564.42607
110.3	65594.20696
110.515	65672.24001
110.73	65509.52524
110.945	65621.72405
111.16	65564.42607
111.375	65569.00577
111.59	65617.13606
111.804	65587.33175
112.019	65589.62331
112.234	65626.31276
112.449	65564.42607
112.663	65603.37643
112.878	65626.31276
113.093	65605.66925
113.308	65518.66828
113.522	65603.37643
113.737	65725.14721
113.951	65573.58619
114.166	65605.66925
114.381	65594.20696
114.595	65617.13606
114.81	65587.33175
115.024	65601.08379
115.239	65573.58619
115.453	65635.49237
115.668	65619.42996
115.882	65566.71583
116.097	65619.42996
116.311	65702.13206
116.525	65594.20696
116.74	65709.03466
116.954	65557.55786
117.169	65605.66925
117.383	65587.33175
117.597	65543.82625
117.811	65603.37643
118.026	65518.66828
118.24	65555.26881
118.454	65607.96225
118.668	65610.25543
118.883	65610.25543
119.097	65591.91505
119.311	65591.91505
119.525	65594.20696
119.739	65598.79134
119.953	65619.42996
120.167	65477.5468
120.381	65628.60739
120.595	65594.20696
120.809	65635.49237
121.023	65580.45816
121.237	65619.42996
121.451	65628.60739
121.665	65624.01831
121.879	65591.91505
122.093	65527.81415
122.307	65699.83157
122.521	65640.08327
122.735	65527.81415
122.949	65624.01831
123.163	65679.13541
123.376	65562.13649
123.59	65541.53828
123.804	65598.79134
124.018	65635.49237
124.231	65646.97099
124.445	65669.94191
124.659	65525.52741
124.872	65507.23992
125.086	65603.37643
125.3	65598.79134
125.513	65580.45816
125.727	65635.49237
125.94	65582.74918
126.154	65603.37643
126.368	65651.56371
126.581	65626.31276
126.795	65635.49237
127.008	65630.9022
127.222	65663.04871
127.435	65651.56371
127.648	65649.26725
127.862	65578.16733
128.075	65642.37899
128.289	65559.84708
128.502	65653.86034
128.715	65589.62331
128.929	65704.43275
129.142	65630.9022
129.355	65601.08379
129.568	65539.25048
129.782	65578.16733
129.995	65523.24086
130.208	65624.01831
130.421	65644.6749
130.634	65637.78773
130.848	65559.84708
131.061	65523.24086
131.274	65564.42607
131.487	65663.04871
131.7	65635.49237
131.913	65562.13649
132.126	65607.96225
132.339	65511.81073
132.552	65422.80634
132.765	65530.10106
132.978	65607.96225
133.191	65630.9022
133.404	65566.71583
133.617	65626.31276
133.83	65578.16733
134.043	65656.15716
134.255	65681.43425
134.468	65580.45816
134.681	65676.83676
134.894	65718.24072
135.107	65646.97099
135.319	65569.00577
135.532	65596.49906
135.745	65562.13649
135.958	65614.84233
136.17	65688.33186
136.383	65591.91505
136.596	65640.08327
136.808	65612.54879
137.021	65550.69125
137.233	65642.37899
137.446	65585.04038
137.659	65624.01831
137.871	65475.26394
138.084	65614.84233
138.296	65575.87667
138.509	65610.25543
138.721	65644.6749
138.934	65591.91505
139.146	65578.16733
139.358	65637.78773
139.571	65516.38225
139.783	65520.95448
139.996	65596.49906
140.208	65541.53828
140.42	65548.40274
140.632	65575.87667
140.845	65628.60739
141.057	65688.33186
141.269	65635.49237
141.481	65610.25543
141.694	65656.15716
141.906	65589.62331
142.118	65706.73361
142.33	65582.74918
142.542	65663.04871
142.754	65571.29589
142.967	65695.23113
143.179	65649.26725
143.391	65536.96286
143.603	65628.60739
143.815	65525.52741
144.027	65605.66925
144.239	65498.10041
144.451	65596.49906
144.663	65607.96225
144.875	65532.38815
145.086	65500.38502
145.298	65552.97994
145.51	65630.9022
145.722	65534.67541
145.934	65624.01831
146.146	65628.60739
146.358	65612.54879
146.569	65663.04871
146.781	65578.16733
146.993	65660.75134
147.205	65514.0964
147.416	65614.84233
147.628	65605.66925
147.84	65564.42607
148.051	65612.54879
148.263	65578.16733
148.475	65651.56371
148.686	65617.13606
148.898	65541.53828
149.109	65525.52741
149.321	65653.86034
149.532	65532.38815
149.744	65589.62331
149.955	65566.71583
150.167	65621.72405
150.378	65607.96225
150.59	65637.78773
150.801	65676.83676
151.013	65663.04871
151.224	65525.52741
151.435	65612.54879
151.647	65525.52741
151.858	65580.45816
152.069	65612.54879
152.281	65614.84233
152.492	65585.04038
152.703	65619.42996
152.914	65484.39642
153.126	65580.45816
153.337	65585.04038
153.548	65681.43425
153.759	65575.87667
153.97	65660.75134
154.181	65644.6749
154.392	65555.26881
154.604	65672.24001
154.815	65635.49237
155.026	65569.00577
155.237	65612.54879
155.448	65504.95477
155.659	65587.33175
155.87	65594.20696
156.081	65573.58619
156.292	65642.37899
156.502	65674.53829
156.713	65571.29589
156.924	65548.40274
157.135	65591.91505
157.346	65607.96225
157.557	65571.29589
157.768	65637.78773
157.978	65679.13541
158.189	65582.74918
158.4	65644.6749
158.611	65582.74918
158.821	65532.38815
159.032	65621.72405
159.243	65552.97994
159.453	65601.08379
159.664	65601.08379
159.875	65562.13649
160.085	65637.78773
160.296	65562.13649
160.507	65621.72405
160.717	65646.97099
160.928	65559.84708
161.138	65764.31572
161.349	65619.42996
161.559	65686.03247
161.77	65617.13606
161.98	65640.08327
162.19	65566.71583
162.401	65621.72405
162.611	65555.26881
162.822	65628.60739
163.032	65621.72405
163.242	65635.49237
163.453	65555.26881
163.663	65658.45416
163.873	65582.74918
164.084	65644.6749
164.294	65656.15716
164.504	65605.66925
164.714	65587.33175
164.924	65589.62331
165.135	65640.08327
165.345	65559.84708
165.555	65598.79134
165.765	65546.11441
165.975	65555.26881
166.185	65603.37643
166.395	65630.9022
166.605	65672.24001
166.815	65660.75134
167.025	65619.42996
167.235	65520.95448
167.445	65718.24072
167.655	65582.74918
167.865	65612.54879
168.075	65596.49906
168.285	65612.54879
168.495	65594.20696
168.705	65530.10106
168.915	65504.95477
169.124	65569.00577
169.334	65571.29589
169.544	65575.87667
169.754	65612.54879
169.964	65566.71583
170.173	65541.53828
170.383	65587.33175
170.593	65594.20696
170.802	65550.69125
171.012	65653.86034
171.222	65617.13606
171.431	65658.45416
171.641	65624.01831
171.851	65679.13541
172.06	65637.78773
172.27	65640.08327
172.479	65573.58619
172.689	65635.49237
172.898	65582.74918
173.108	65626.31276
173.317	65559.84708
173.527	65665.34626
173.736	65669.94191
173.945	65596.49906
174.155	65557.55786
174.364	65559.84708
174.574	65596.49906
174.783	65607.96225
174.992	65546.11441
175.202	65605.66925
175.411	65548.40274
175.62	65635.49237
175.829	65649.26725
176.039	65585.04038
176.248	65555.26881
176.457	65607.96225
176.666	65523.24086
176.875	65640.08327
177.084	65569.00577
177.294	65646.97099
177.503	65660.75134
177.712	65518.66828
177.921	65642.37899
178.13	65610.25543
178.339	65697.53126
178.548	65630.9022
178.757	65598.79134
178.966	65559.84708
179.175	65573.58619
179.384	65617.13606
179.593	65594.20696
179.802	65672.24001
180.011	65598.79134
180.219	65619.42996
180.428	65589.62331
180.637	65589.62331
180.846	65559.84708
181.055	65591.91505
181.263	65617.13606
181.472	65514.0964
181.681	65646.97099
181.89	65582.74918
182.098	65516.38225
182.307	65624.01831
182.516	65585.04038
182.724	65601.08379
182.933	65564.42607
183.142	65688.33186
183.35	65585.04038
183.559	65591.91505
183.767	65607.96225
183.976	65637.78773
184.184	65651.56371
184.393	65578.16733
184.601	65637.78773
184.81	65518.66828
185.018	65642.37899
185.227	65580.45816
185.435	65660.75134
185.644	65564.42607
185.852	65706.73361
186.06	65562.13649
186.269	65562.13649
186.477	65557.55786
186.685	65605.66925
186.894	65516.38225
187.102	65601.08379
187.31	65532.38815
187.518	65605.66925
187.727	65690.63143
187.935	65667.64399
188.143	65607.96225
188.351	65575.87667
188.559	65667.64399
188.768	65530.10106
188.976	65550.69125
189.184	65566.71583
189.392	65564.42607
189.6	65573.58619
189.808	65493.53171
190.016	65635.49237
190.224	65624.01831
190.432	65594.20696
190.64	65598.79134
190.848	65589.62331
191.056	65541.53828
191.264	65580.45816
191.472	65605.66925
191.679	65621.72405
191.887	65614.84233
192.095	65697.53126
192.303	65578.16733
192.511	65628.60739
192.719	65704.43275
192.926	65548.40274
193.134	65704.43275
193.342	65633.1972
193.55	65612.54879
193.757	65605.66925
193.965	65582.74918
194.173	65566.71583
194.38	65672.24001
194.588	65646.97099
194.796	65626.31276
195.003	65550.69125
195.211	65646.97099
195.418	65628.60739
195.626	65695.23113
195.833	65589.62331
196.041	65546.11441
196.248	65605.66925
196.456	65548.40274
196.663	65504.95477
196.871	65635.49237
197.078	65587.33175
197.285	65612.54879
197.493	65587.33175
197.7	65468.41642
197.908	65580.45816
198.115	65621.72405
198.322	65591.91505
198.529	65663.04871
198.737	65681.43425
198.944	65587.33175
199.151	65679.13541
199.358	65644.6749
199.566	65722.84486
199.773	65514.0964
199.98	65610.25543
200.187	65640.08327
200.394	65603.37643
200.601	65482.11304
200.809	65692.93119
201.016	65580.45816
201.223	65573.58619
201.43	65688.33186
201.637	65630.9022
201.844	65635.49237
202.051	65709.03466
202.258	65585.04038
202.465	65626.31276
202.672	65697.53126
202.878	65603.37643
203.085	65630.9022
203.292	65585.04038
203.499	65555.26881
203.706	65603.37643
203.913	65601.08379
204.12	65663.04871
204.326	65644.6749
204.533	65656.15716
204.74	65546.11441
204.947	65594.20696
205.153	65605.66925
205.36	65589.62331
205.567	65695.23113
205.773	65688.33186
205.98	65566.71583
206.187	65610.25543
206.393	65601.08379
206.6	65624.01831
206.806	65665.34626
207.013	65539.25048
207.22	65546.11441
207.426	65656.15716
207.633	65596.49906
207.839	65530.10106
208.046	65562.13649
208.252	65564.42607
208.458	65559.84708
208.665	65587.33175
208.871	65626.31276
209.078	65518.66828
209.284	65610.25543
209.49	65621.72405
209.697	65624.01831
209.903	65663.04871
210.109	65628.60739
210.316	65562.13649
210.522	65642.37899
210.728	65580.45816
210.934	65384.09217
211.14	65624.01831
211.347	65683.73327
211.553	65569.00577
211.759	65591.91505
211.965	65546.11441
212.171	65569.00577
212.377	65534.67541
212.583	65596.49906
212.789	65633.1972
212.996	65582.74918
213.202	65548.40274
213.408	65589.62331
213.614	65596.49906
213.82	65644.6749
214.025	65628.60739
214.231	65674.53829
214.437	65633.1972
214.643	65530.10106
214.849	65594.20696
215.055	65601.08379
215.261	65658.45416
215.467	65591.91505
215.672	65672.24001
215.878	65532.38815
216.084	65651.56371
216.29	65591.91505
216.496	65516.38225
216.701	65559.84708
216.907	65653.86034
217.113	65594.20696
217.318	65525.52741
217.524	65637.78773
217.73	65649.26725
217.935	65617.13606
218.141	65564.42607
218.346	65582.74918
218.552	65614.84233
218.758	65582.74918
218.963	65571.29589
219.169	65580.45816
219.374	65591.91505
219.58	65591.91505
219.785	65612.54879
219.991	65539.25048
220.196	65692.93119
220.401	65626.31276
220.607	65596.49906
220.812	65511.81073
221.017	65601.08379
221.223	65548.40274
221.428	65523.24086
221.633	65543.82625
221.839	65591.91505
222.044	65651.56371
222.249	65582.74918
222.454	65575.87667
222.66	65578.16733
222.865	65624.01831
223.07	65477.5468
223.275	65598.79134
223.48	65566.71583
223.686	65651.56371
223.891	65681.43425
224.096	65674.53829
224.301	65491.24762
224.506	65646.97099
224.711	65552.97994
224.916	65633.1972
225.121	65626.31276
225.326	65624.01831
225.531	65651.56371
225.736	65630.9022
225.941	65660.75134
226.146	65610.25543
226.351	65580.45816
226.555	65578.16733
226.76	65573.58619
226.965	65676.83676
227.17	65619.42996
227.375	65642.37899
227.58	65626.31276
227.784	65557.55786
227.989	65715.93893
228.194	65637.78773
228.399	65566.71583
228.603	65658.45416
228.808	65633.1972
229.013	65543.82625
229.217	65596.49906
229.422	65649.26725
229.627	65610.25543
229.831	65630.9022
230.036	65562.13649
230.24	65589.62331
230.445	65566.71583
230.649	65589.62331
230.854	65580.45816
231.058	65619.42996
231.263	65607.96225
231.467	65575.87667
231.672	65614.84233
231.876	65596.49906
232.081	65546.11441
232.285	65569.00577
232.489	65566.71583
232.694	65635.49237
232.898	65546.11441
233.102	65502.66981
233.307	65589.62331
233.511	65612.54879
233.715	65564.42607
233.919	65541.53828
234.124	65656.15716
234.328	65695.23113
234.532	65591.91505
234.736	65552.97994
234.94	65646.97099
235.145	65587.33175
235.349	65575.87667
235.553	65482.11304
235.757	65491.24762
235.961	65649.26725
236.165	65642.37899
236.369	65557.55786
236.573	65559.84708
236.777	65656.15716
236.981	65582.74918
237.185	65518.66828
237.389	65617.13606
237.593	65596.49906
237.797	65566.71583
238.001	65562.13649
238.205	65578.16733
238.409	65633.1972
238.612	65637.78773
238.816	65475.26394
239.02	65601.08379
239.224	65614.84233
239.428	65564.42607
239.631	65587.33175
239.835	65571.29589
240.039	65601.08379
240.243	65550.69125
240.446	65525.52741
240.65	65651.56371
240.854	65750.48537
241.057	65575.87667
241.261	65651.56371
241.464	65672.24001
241.668	65548.40274
241.872	65637.78773
242.075	65598.79134
242.279	65587.33175
242.482	65635.49237
242.686	65626.31276
242.889	65534.67541
243.093	65637.78773
243.296	65541.53828
243.499	65598.79134
243.703	65601.08379
243.906	65660.75134
244.11	65571.29589
244.313	65605.66925
244.516	65580.45816
244.72	65541.53828
244.923	65663.04871
245.126	65507.23992
245.33	65578.16733
245.533	65653.86034
245.736	65580.45816
245.939	65617.13606
246.142	65585.04038
246.346	65633.1972
246.549	65679.13541
246.752	65637.78773
246.955	65614.84233
247.158	65573.58619
247.361	65619.42996
247.564	65559.84708
247.767	65518.66828
247.971	65601.08379
248.174	65569.00577
248.377	65619.42996
248.58	65679.13541
248.783	65644.6749
248.985	65605.66925
249.188	65619.42996
249.391	65571.29589
249.594	65601.08379
249.797	65649.26725
250	65520.95448
250.203	65617.13606
250.406	65624.01831
250.609	65651.56371
250.811	65628.60739
251.014	65628.60739
251.217	65660.75134
251.42	65644.6749
251.622	65477.5468
251.825	65541.53828
252.028	65628.60739
252.231	65633.1972
252.433	65646.97099
252.636	65539.25048
252.838	65566.71583
253.041	65603.37643
253.244	65552.97994
253.446	65502.66981
253.649	65589.62331
253.851	65546.11441
254.054	65624.01831
254.256	65536.96286
254.459	65628.60739
254.661	65571.29589
254.864	65649.26725
255.066	65445.60269
255.269	65607.96225
255.471	65573.58619
255.673	65557.55786
255.876	65628.60739
256.078	65573.58619
256.281	65585.04038
256.483	65601.08379
256.685	65656.15716
256.887	65591.91505
257.09	65582.74918
257.292	65646.97099
257.494	65557.55786
257.696	65617.13606
257.899	65646.97099
258.101	65504.95477
258.303	65578.16733
258.505	65676.83676
258.707	65610.25543
258.909	65637.78773
259.111	65697.53126
259.314	65578.16733
259.516	65628.60739
259.718	65541.53828
259.92	65587.33175
260.122	65614.84233
260.324	65628.60739
260.526	65520.95448
260.728	65585.04038
260.93	65566.71583
261.131	65683.73327
261.333	65642.37899
261.535	65605.66925
261.737	65633.1972
261.939	65559.84708
262.141	65596.49906
262.343	65552.97994
262.544	65571.29589
262.746	65571.29589
262.948	65653.86034
263.15	65603.37643
263.352	65532.38815
263.553	65601.08379
263.755	65653.86034
263.957	65527.81415
264.158	65564.42607
264.36	65587.33175
264.562	65550.69125
264.763	65637.78773
264.965	65569.00577
265.166	65621.72405
265.368	65525.52741
265.569	65630.9022
265.771	65626.31276
265.972	65562.13649
266.174	65630.9022
266.375	65617.13606
266.577	65603.37643
266.778	65571.29589
266.98	65601.08379
267.181	65651.56371
267.383	65672.24001
267.584	65523.24086
267.785	65607.96225
267.987	65628.60739
268.188	65676.83676
268.389	65562.13649
268.591	65672.24001
268.792	65669.94191
268.993	65573.58619
269.194	65628.60739
269.396	65536.96286
269.597	65589.62331
269.798	65640.08327
269.999	65587.33175
270.2	65669.94191
270.401	65532.38815
270.603	65630.9022
270.804	65646.97099
271.005	65649.26725
271.206	65601.08379
271.407	65573.58619
271.608	65527.81415
271.809	65605.66925
272.01	65591.91505
272.211	65619.42996
272.412	65557.55786
272.613	65550.69125
272.814	65653.86034
273.015	65626.31276
273.216	65646.97099
273.416	65621.72405
273.617	65546.11441
273.818	65571.29589
274.019	65614.84233
274.22	65555.26881
274.421	65585.04038
274.621	65621.72405
274.822	65587.33175
275.023	65591.91505
275.224	65598.79134
275.424	65681.43425
275.625	65713.63732
275.826	65607.96225
276.026	65651.56371
276.227	65614.84233
276.428	65566.71583
276.628	65559.84708
276.829	65562.13649
277.029	65614.84233
277.23	65591.91505
277.43	65569.00577
277.631	65525.52741
277.831	65683.73327
278.032	65660.75134
278.232	65614.84233
278.433	65630.9022
278.633	65523.24086
278.834	65633.1972
279.034	65562.13649
279.234	65532.38815
279.435	65603.37643
279.635	65582.74918
279.835	65610.25543
280.036	65520.95448
280.236	65695.23113
280.436	65630.9022
280.637	65603.37643
280.837	65536.96286
281.037	65607.96225
281.237	65607.96225
281.438	65621.72405
281.638	65630.9022
281.838	65626.31276
282.038	65626.31276
282.238	65603.37643
282.438	65612.54879
282.638	65610.25543
282.838	65628.60739
283.038	65582.74918
283.239	65624.01831
283.439	65605.66925
283.639	65509.52524
283.839	65640.08327
284.039	65580.45816
284.238	65605.66925
284.438	65562.13649
284.638	65656.15716
284.838	65633.1972
285.038	65635.49237
285.238	65658.45416
285.438	65598.79134
285.638	65596.49906
285.838	65601.08379
286.037	65566.71583
286.237	65640.08327
286.437	65646.97099
286.637	65624.01831
286.836	65621.72405
287.036	65672.24001
287.236	65569.00577
287.436	65656.15716
287.635	65591.91505
287.835	65601.08379
288.034	65605.66925
288.234	65511.81073
288.434	65578.16733
288.633	65614.84233
288.833	65649.26725
289.032	65704.43275
289.232	65591.91505
289.431	65591.91505
289.631	65628.60739
289.83	65523.24086
290.03	65651.56371
290.229	65640.08327
290.429	65711.3359
290.628	65541.53828
290.828	65674.53829
291.027	65697.53126
291.226	65624.01831
291.426	65585.04038
291.625	65468.41642
291.824	65619.42996
292.024	65619.42996
292.223	65651.56371
292.422	65610.25543
292.621	65628.60739
292.821	65575.87667
293.02	65614.84233
293.219	65543.82625
293.418	65649.26725
293.617	65555.26881
293.817	65642.37899
294.016	65514.0964
294.215	65546.11441
294.414	65688.33186
294.613	65624.01831
294.812	65610.25543
295.011	65637.78773
295.21	65587.33175
295.409	65676.83676
295.608	65722.84486
295.807	65642.37899
296.006	65578.16733
296.205	65612.54879
296.404	65477.5468
296.603	65630.9022
296.802	65516.38225
297.001	65640.08327
297.2	65637.78773
297.398	65656.15716
297.597	65543.82625
297.796	65681.43425
297.995	65665.34626
298.194	65562.13649
298.392	65626.31276
298.591	65619.42996
298.79	65663.04871
298.988	65630.9022
299.187	65626.31276
299.386	65596.49906
299.585	65614.84233
299.783	65598.79134
299.982	65534.67541
300.18	65633.1972
300.379	65621.72405
300.578	65624.01831
300.776	65681.43425
300.975	65587.33175
301.173	65530.10106
301.372	65614.84233
301.57	65633.1972
301.769	65637.78773
301.967	65566.71583
302.166	65614.84233
302.364	65658.45416
302.562	65610.25543
302.761	65564.42607
302.959	65619.42996
303.157	65573.58619
303.356	65646.97099
303.554	65555.26881
303.752	65614.84233
303.951	65580.45816
304.149	65493.53171
304.347	65587.33175
304.546	65557.55786
304.744	65594.20696
304.942	65578.16733
305.14	65646.97099
305.338	65672.24001
305.536	65624.01831
305.735	65626.31276
305.933	65633.1972
306.131	65642.37899
306.329	65555.26881
306.527	65672.24001
306.725	65619.42996
306.923	65566.71583
307.121	65509.52524
307.319	65644.6749
307.517	65646.97099
307.715	65596.49906
307.913	65486.67998
308.111	65573.58619
308.309	65589.62331
308.507	65621.72405
308.705	65610.25543
308.903	65665.34626
309.1	65546.11441
309.298	65550.69125
309.496	65591.91505
309.694	65628.60739
309.892	65653.86034
310.089	65660.75134
310.287	65610.25543
310.485	65640.08327
310.683	65596.49906
310.88	65614.84233
311.078	65621.72405
311.276	65557.55786
311.473	65607.96225
311.671	65598.79134
311.869	65555.26881
312.066	65605.66925
312.264	65603.37643
312.461	65525.52741
312.659	65546.11441
312.856	65557.55786
313.054	65635.49237
313.251	65630.9022
313.449	65543.82625
313.646	65612.54879
313.844	65656.15716
314.041	65612.54879
314.239	65541.53828
314.436	65532.38815
314.634	65500.38502
314.831	65557.55786
315.028	65679.13541
315.226	65612.54879
315.423	65541.53828
315.62	65646.97099
315.817	65594.20696
316.015	65486.67998
316.212	65642.37899
316.409	65562.13649
316.606	65578.16733
316.804	65624.01831
317.001	65658.45416
317.198	65559.84708
317.395	65559.84708
317.592	65559.84708
317.789	65610.25543
317.987	65587.33175
318.184	65640.08327
318.381	65676.83676
318.578	65562.13649
318.775	65672.24001
318.972	65667.64399
319.169	65665.34626
319.366	65557.55786
319.563	65594.20696
319.76	65633.1972
319.957	65624.01831
320.154	65637.78773
320.351	65555.26881
320.547	65578.16733
320.744	65617.13606
320.941	65495.81597
321.138	65610.25543
321.335	65596.49906
321.532	65644.6749
321.728	65564.42607
321.925	65663.04871
322.122	65484.39642
322.319	65711.3359
322.515	65555.26881
322.712	65569.00577
322.909	65681.43425
323.105	65686.03247
323.302	65546.11441
323.499	65525.52741
323.695	65573.58619
323.892	65603.37643
324.089	65559.84708
324.285	65626.31276
324.482	65635.49237
324.678	65686.03247
324.875	65640.08327
325.071	65589.62331
325.268	65594.20696
325.464	65619.42996
325.661	65598.79134
325.857	65612.54879
326.054	65646.97099
326.25	65573.58619
326.446	65571.29589
326.643	65591.91505
326.839	65614.84233
327.035	65695.23113
327.232	65546.11441
327.428	65690.63143
327.624	65683.73327
327.821	65601.08379
328.017	65660.75134
328.213	65637.78773
328.409	65601.08379
328.606	65580.45816
328.802	65582.74918
328.998	65617.13606
329.194	65679.13541
329.39	65557.55786
329.586	65601.08379
329.783	65562.13649
329.979	65589.62331
330.175	65619.42996
330.371	65601.08379
330.567	65617.13606
330.763	65589.62331
330.959	65653.86034
331.155	65626.31276
331.351	65635.49237
331.547	65571.29589
331.743	65711.3359
331.939	65607.96225
332.135	65635.49237
332.33	65534.67541
332.526	65598.79134
332.722	65582.74918
332.918	65550.69125
333.114	65653.86034
333.31	65498.10041
333.506	65525.52741
333.701	65603.37643
333.897	65713.63732
334.093	65559.84708
334.289	65665.34626
334.484	65500.38502
334.68	65516.38225
334.876	65543.82625
335.071	65610.25543
335.267	65539.25048
335.463	65621.72405
335.658	65619.42996
335.854	65729.75247
336.049	65605.66925
336.245	65635.49237
336.441	65630.9022
336.636	65582.74918
336.832	65564.42607
337.027	65482.11304
337.223	65669.94191
337.418	65527.81415
337.613	65660.75134
337.809	65578.16733
338.004	65653.86034
338.2	65596.49906
338.395	65646.97099
338.591	65552.97994
338.786	65660.75134
338.981	65656.15716
339.177	65665.34626
339.372	65591.91505
339.567	65532.38815
339.762	65564.42607
339.958	65732.05538
340.153	65690.63143
340.348	65062.60373
340.543	65612.54879
340.739	65656.15716
340.934	65626.31276
341.129	65573.58619
341.324	65573.58619
341.519	65681.43425
341.714	65745.87675
341.909	65660.75134
342.104	65601.08379
342.299	65610.25543
342.495	65633.1972
342.69	65651.56371
342.885	65637.78773
343.08	65352.24709
343.275	65518.66828
343.469	65621.72405
343.664	65566.71583
343.859	65610.25543
344.054	65672.24001
344.249	65653.86034
344.444	65598.79134
344.639	65633.1972
344.834	65658.45416
345.029	65605.66925
345.223	65580.45816
345.418	65660.75134
345.613	65591.91505
345.808	65610.25543
346.003	65614.84233
346.197	65610.25543
346.392	65594.20696
346.587	65498.10041
346.781	65624.01831
346.976	65582.74918
347.171	65527.81415
347.365	65633.1972
347.56	65630.9022
347.755	65552.97994
347.949	65628.60739
348.144	65658.45416
348.338	65596.49906
348.533	65591.91505
348.727	65642.37899
348.922	65559.84708
349.116	65674.53829
349.311	65603.37643
349.505	65674.53829
349.7	65658.45416
349.894	65646.97099
350.089	65582.74918
350.283	65617.13606
350.477	65601.08379
350.672	65619.42996
350.866	65541.53828
351.06	65596.49906
351.255	65601.08379
351.449	65605.66925
351.643	65605.66925
351.837	65562.13649
352.032	65702.13206
352.226	65651.56371
352.42	65656.15716
352.614	65539.25048
352.809	65642.37899
353.003	65598.79134
353.197	65585.04038
353.391	65621.72405
353.585	65587.33175
353.779	65683.73327
353.973	65539.25048
354.167	65575.87667
354.361	65663.04871
354.555	65550.69125
354.749	65619.42996
354.943	65642.37899
355.137	65578.16733
355.331	65626.31276
355.525	65640.08327
355.719	65578.16733
355.913	65617.13606
356.107	65589.62331
356.301	65619.42996
356.495	65614.84233
356.689	65605.66925
356.883	65578.16733
357.076	65674.53829
357.27	65543.82625
357.464	65640.08327
357.658	65541.53828
357.852	65612.54879
358.045	65580.45816
358.239	65653.86034
358.433	65628.60739
358.626	65640.08327
358.82	65612.54879
359.014	65591.91505
359.207	65601.08379
359.401	65692.93119
359.595	65580.45816
359.788	65633.1972
359.982	65605.66925
360.175	65571.29589
360.369	65628.60739
360.563	65601.08379
360.756	65612.54879
360.95	65589.62331
361.143	65699.83157
361.336	65750.48537
361.53	65656.15716
361.723	65642.37899
361.917	65585.04038
362.11	65644.6749
362.304	65619.42996
362.497	65610.25543
362.69	65484.39642
362.884	65594.20696
363.077	65633.1972
363.27	65626.31276
363.464	65601.08379
363.657	65642.37899
363.85	65559.84708
364.043	65628.60739
364.237	65601.08379
364.43	65573.58619
364.623	65569.00577
364.816	65658.45416
365.009	65548.40274
365.202	65633.1972
365.396	65532.38815
365.589	65594.20696
365.782	65594.20696
365.975	65674.53829
366.168	65564.42607
366.361	65527.81415
366.554	65610.25543
366.747	65642.37899
366.94	65575.87667
367.133	65614.84233
367.326	65626.31276
367.519	65628.60739
367.712	65736.66176
367.905	65624.01831
368.098	65649.26725
368.291	65507.23992
368.484	65610.25543
368.676	65580.45816
368.869	65681.43425
369.062	65621.72405
369.255	65605.66925
369.448	65569.00577
369.64	65594.20696
369.833	65633.1972
370.026	65559.84708
370.219	65676.83676
370.411	65504.95477
370.604	65690.63143
370.797	65594.20696
370.989	65566.71583
371.182	65683.73327
371.375	65555.26881
371.567	65585.04038
371.76	65617.13606
371.952	65686.03247
372.145	65589.62331
372.338	65582.74918
372.53	65591.91505
372.723	65669.94191
372.915	65617.13606
373.108	65644.6749
373.3	65578.16733
373.493	65571.29589
373.685	65569.00577
373.877	65663.04871
374.07	65552.97994
374.262	65543.82625
374.455	65653.86034
374.647	65711.3359
374.839	65546.11441
375.032	65601.08379
375.224	65601.08379
375.416	65660.75134
375.609	65164.1264
375.801	65607.96225
375.993	65653.86034
376.185	65665.34626
376.378	65617.13606
376.57	65596.49906
376.762	65591.91505
376.954	65578.16733
377.146	65564.42607
377.338	65656.15716
377.53	65646.97099
377.723	65562.13649
377.915	65651.56371
378.107	65610.25543
378.299	65642.37899
378.491	65637.78773
378.683	65591.91505
378.875	65633.1972
379.067	65543.82625
379.259	65571.29589
379.451	65619.42996
379.643	65555.26881
379.835	65585.04038
380.027	65539.25048
380.219	65651.56371
380.41	65605.66925
380.602	65598.79134
380.794	65697.53126
380.986	65642.37899
381.178	65612.54879
381.37	65619.42996
381.561	65603.37643
381.753	65520.95448
381.945	65534.67541
382.137	65601.08379
382.328	65630.9022
382.52	65642.37899
382.712	65635.49237
382.903	65539.25048
383.095	65621.72405
383.287	65667.64399
383.478	65580.45816
383.67	65640.08327
383.862	65598.79134
384.053	65591.91505
384.245	65637.78773
384.436	65569.00577
384.628	65596.49906
384.819	65624.01831
385.011	65564.42607
385.202	65617.13606
385.394	65637.78773
385.585	65511.81073
385.777	65633.1972
385.968	65674.53829
386.159	65610.25543
386.351	65603.37643
386.542	65575.87667
386.734	65527.81415
386.925	65628.60739
387.116	65587.33175
387.308	65591.91505
387.499	65653.86034
387.69	65569.00577
387.881	65527.81415
388.073	65603.37643
388.264	65601.08379
388.455	65688.33186
388.646	65555.26881
388.837	65573.58619
389.029	65596.49906
389.22	65621.72405
389.411	65642.37899
389.602	65598.79134
389.793	65633.1972
389.984	65612.54879
390.175	65582.74918
390.366	65569.00577
390.557	65665.34626
390.748	65605.66925
390.939	65681.43425
391.13	65628.60739
391.321	65591.91505
391.512	65624.01831
391.703	65610.25543
391.894	65637.78773
392.085	65660.75134
392.276	65651.56371
392.467	65665.34626
392.658	65646.97099
392.849	65601.08379
393.039	65630.9022
393.23	65614.84233
393.421	65589.62331
393.612	65605.66925
393.803	65612.54879
393.993	65511.81073
394.184	65575.87667
394.375	65663.04871
394.566	65601.08379
394.756	65589.62331
394.947	65552.97994
395.138	65635.49237
395.328	65539.25048
395.519	65559.84708
395.709	65665.34626
395.9	65507.23992
396.091	65635.49237
396.281	65637.78773
396.472	65630.9022
396.662	65656.15716
396.853	65646.97099
397.043	65628.60739
397.234	65633.1972
397.424	65587.33175
397.615	65587.33175
397.805	65596.49906
397.996	65686.03247
398.186	65550.69125
398.376	65532.38815
398.567	65644.6749
398.757	65614.84233
398.947	65745.87675
399.138	65562.13649
399.328	65550.69125
399.518	65667.64399
399.709	65697.53126
399.899	65610.25543
400.089	65646.97099
400.279	65601.08379
400.47	65607.96225
400.66	65605.66925
400.85	65534.67541
401.04	65571.29589
401.23	65546.11441
401.421	65585.04038
401.611	65628.60739
401.801	65569.00577
401.991	65601.08379
402.181	65619.42996
402.371	65587.33175
402.561	65539.25048
402.751	65621.72405
402.941	65573.58619
403.131	65532.38815
403.321	65642.37899
403.511	65591.91505
403.701	65562.13649
403.891	65601.08379
404.081	65598.79134
404.271	65649.26725
404.461	65530.10106
404.651	65658.45416
404.84	65580.45816
405.03	65571.29589
405.22	65646.97099
405.41	65635.49237
405.6	65548.40274
405.789	65552.97994
405.979	65536.96286
406.169	65676.83676
406.359	65610.25543
406.548	65660.75134
406.738	65660.75134
406.928	65534.67541
407.118	65569.00577
407.307	65555.26881
407.497	65603.37643
407.686	65546.11441
407.876	65653.86034
408.066	65633.1972
408.255	65642.37899
408.445	65635.49237
408.634	65562.13649
408.824	65582.74918
409.013	65626.31276
409.203	65548.40274
409.392	65582.74918
409.582	65587.33175
409.771	65681.43425
409.961	65640.08327
410.15	65569.00577
410.34	65580.45816
410.529	65656.15716
410.718	65596.49906
410.908	65468.41642
411.097	65656.15716
411.286	65640.08327
411.476	65669.94191
411.665	65630.9022
411.854	65621.72405
412.044	65665.34626
412.233	65580.45816
412.422	65580.45816
412.611	65598.79134
412.8	65557.55786
412.99	65644.6749
413.179	65564.42607
413.368	65637.78773
413.557	65663.04871
413.746	65614.84233
413.935	65637.78773
414.124	65683.73327
414.313	65548.40274
414.503	65582.74918
414.692	65640.08327
414.881	65527.81415
415.07	65543.82625
415.259	65617.13606
415.448	65541.53828
415.637	65598.79134
415.826	65580.45816
416.015	65672.24001
416.203	65617.13606
416.392	65566.71583
416.581	65628.60739
416.77	65587.33175
416.959	65575.87667
417.148	65635.49237
417.337	65646.97099
417.525	65591.91505
417.714	65573.58619
417.903	65651.56371
418.092	65646.97099
418.281	65580.45816
418.469	65589.62331
418.658	65594.20696
418.847	65624.01831
419.035	65658.45416
419.224	65672.24001
419.413	65649.26725
419.601	65591.91505
419.79	65681.43425
419.979	65617.13606
420.167	65651.56371
420.356	65614.84233
420.544	65578.16733
420.733	65646.97099
420.921	65626.31276
421.11	65578.16733
421.299	65564.42607
421.487	65607.96225
421.675	65603.37643
421.864	65612.54879
422.052	65630.9022
422.241	65511.81073
422.429	65624.01831
422.618	65614.84233
422.806	65591.91505
422.994	65624.01831
423.183	65569.00577
423.371	65624.01831
423.559	65582.74918
423.748	65555.26881
423.936	65628.60739
424.124	65713.63732
424.312	65649.26725
424.501	65591.91505
424.689	65614.84233
424.877	65612.54879
425.065	65610.25543
425.254	65628.60739
425.442	65466.13426
425.63	65534.67541
425.818	65525.52741
426.006	65614.84233
426.194	65520.95448
426.382	65539.25048
426.57	65571.29589
426.758	65587.33175
426.946	65624.01831
427.134	65562.13649
427.323	65640.08327
427.51	65610.25543
427.698	65596.49906
427.886	65566.71583
428.074	65530.10106
428.262	65711.3359
428.45	65601.08379
428.638	65594.20696
428.826	65569.00577
429.014	65642.37899
429.202	65715.93893
429.39	65679.13541
429.577	65539.25048
429.765	65541.53828
429.953	65536.96286
430.141	65612.54879
430.329	65569.00577
430.516	65637.78773
430.704	65477.5468
430.892	65626.31276
431.079	65699.83157
431.267	65541.53828
431.455	65676.83676
431.643	65530.10106
431.83	65578.16733
432.018	65566.71583
432.205	65626.31276
432.393	65674.53829
432.581	65610.25543
432.768	65541.53828
432.956	65546.11441
433.143	65587.33175
433.331	65559.84708
433.518	65626.31276
433.706	65607.96225
433.893	65500.38502
434.081	65633.1972
434.268	65516.38225
434.456	65649.26725
434.643	65637.78773
434.83	65550.69125
435.018	65550.69125
435.205	65633.1972
435.392	65633.1972
435.58	65706.73361
435.767	65548.40274
435.954	65603.37643
436.142	65541.53828
436.329	65642.37899
436.516	65624.01831
436.703	65566.71583
436.891	65527.81415
437.078	65552.97994
437.265	65548.40274
437.452	65557.55786
437.639	65591.91505
437.827	65573.58619
438.014	65555.26881
438.201	65607.96225
438.388	65550.69125
438.575	65601.08379
438.762	65603.37643
438.949	65617.13606
439.136	65562.13649
439.323	65509.52524
439.51	65610.25543
439.697	65532.38815
439.884	65536.96286
440.071	65562.13649
440.258	65534.67541
440.445	65546.11441
440.632	65352.24709
440.819	65555.26881
441.006	65484.39642
441.193	65569.00577
441.38	65532.38815
441.566	65594.20696
441.753	65603.37643
441.94	65536.96286
442.127	65601.08379
442.314	65520.95448
442.5	65498.10041
442.687	65514.0964
442.874	65541.53828
443.061	65548.40274
443.247	65532.38815
443.434	65443.32227
443.621	65610.25543
443.807	65555.26881
443.994	65431.9228
444.181	65569.00577
444.367	65598.79134
444.554	65514.0964
444.74	65539.25048
444.927	65569.00577
445.114	65511.81073
445.3	65386.3681
445.487	65463.85228
445.673	65479.82983
445.86	65509.52524
446.046	65534.67541
446.233	65498.10041
446.419	65530.10106
446.605	65425.0852
446.792	65429.64343
446.978	65569.00577
447.165	65504.95477
447.351	65530.10106
447.537	65543.82625
447.724	65552.97994
447.91	65438.76197
448.096	65463.85228
448.283	65400.02728
448.469	65502.66981
448.655	65486.67998
448.841	65434.20235
449.028	65472.98126
449.214	65459.28883
449.4	65436.48207
449.586	65457.00737
449.773	65429.64343
449.959	65457.00737
450.145	65343.15462
450.331	65472.98126
450.517	65502.66981
450.703	65381.81641
450.889	65475.26394
451.075	65420.52766
451.261	65345.42748
451.447	65338.6094
451.633	65418.24915
451.819	65406.85919
452.005	65336.33705
452.191	65404.58172
452.377	65386.3681
452.563	65363.61649
452.749	65368.16545
452.935	65343.15462
453.121	65304.54181
453.307	65334.06486
453.493	65277.31495
453.679	65318.16429
453.865	65288.65655
454.05	65261.44372
454.236	65306.8118
454.422	65372.71509
454.608	65329.521
454.794	65349.97371
454.979	65359.06822
455.165	65327.24932
455.351	65268.24468
455.537	65272.77948
455.722	65198.03987
455.908	65279.58294
456.094	65216.14209
456.279	65195.77783
456.465	65161.86681
456.65	65256.91058
456.836	65225.19713
457.022	65213.87873
457.207	65229.72564
457.393	65182.20903
457.578	65234.25481
457.764	65137.02192
457.949	65209.35253
458.135	65148.31262
458.32	65284.11941
458.506	65236.51964
458.691	65200.30208
458.877	65179.94813
459.062	65245.58063
459.248	65252.3781
459.433	65127.99225
459.618	65105.42932
459.804	65202.56444
459.989	65109.94063
460.174	65105.42932
460.36	65132.50676
460.545	65146.05416
460.73	65161.86681
460.915	65150.57125
461.101	65159.60737
461.286	65127.99225
461.471	65146.05416
461.656	65259.17706
461.842	65105.42932
462.027	65134.76426
462.212	65105.42932
462.397	65087.3905
462.582	65118.96516
462.767	65017.58582
462.952	65213.87873
463.138	65098.66357
463.323	65022.08479
463.508	65118.96516
463.693	65078.3749
463.878	65109.94063
464.063	65019.83523
464.248	65055.84703
464.433	65055.84703
464.618	65055.84703
464.803	65051.34335
464.988	65053.59511
465.173	64986.11055
465.357	65026.58438
465.542	65031.08459
465.727	64934.4671
465.912	64983.86349
466.097	65040.08691
466.282	65040.08691
466.467	64983.86349
466.651	64938.9546
466.836	64938.9546
467.021	65096.40863
467.206	64990.60515
467.391	65049.09175
467.575	65010.83855
467.76	65001.84437
467.945	64916.5232
468.129	64947.93145
468.314	64909.79676
468.499	65026.58438
468.683	64898.58907
468.868	64979.36982
469.053	64968.13836
469.237	64952.42079
469.422	64898.58907
469.606	64954.6657
469.791	65017.58582
469.975	64936.71077
470.16	64963.64685
470.344	64927.73699
470.529	64999.59622
470.713	64831.42225
470.898	64992.85269
471.082	64954.6657
471.267	65001.84437
471.451	64986.11055
471.636	65103.17391
471.82	64992.85269
472.004	64862.74991
472.189	64981.61657
472.373	65055.84703
472.557	65037.8361
472.742	65024.3345
472.926	65033.33494
473.11	65044.58901
473.295	64950.17604
473.479	64959.15597
473.663	64968.13836
473.847	65031.08459
474.031	65022.08479
474.216	65017.58582
474.4	65042.33788
474.584	65035.58544
474.768	64997.34822
474.952	64932.22357
475.136	64929.98021
475.32	65062.60373
475.505	64950.17604
475.689	64896.34799
475.873	64970.38434
476.057	64961.40133
476.241	65008.58977
476.425	64934.4671
476.609	64898.58907
476.793	64974.87677
476.977	65044.58901
477.161	64938.9546
477.345	64921.00826
477.529	65037.8361
477.713	64882.90467
477.896	65019.83523
478.08	64864.98872
478.264	64932.22357
478.448	64956.91076
478.632	64887.38517
478.816	65096.40863
478.999	64903.07169
479.183	64986.11055
479.367	64954.6657
479.551	64791.18679
479.735	64894.10706
479.918	64929.98021
480.102	64862.74991
480.286	64900.8303
480.469	64968.13836
480.653	64864.98872
480.837	64880.66465
481.02	64907.55492
481.204	64867.22769
481.388	64838.13285
481.571	64739.84442
481.755	64876.18506
481.938	64867.22769
482.122	64903.07169
482.305	64806.82819
482.489	64724.23385
482.673	64768.85447
482.856	64842.60733
483.04	64835.89583
483.223	64826.94926
483.406	64847.08241
483.59	64842.60733
483.773	64786.71915
483.957	64867.22769
484.14	64757.69383
484.323	64722.00435
484.507	64764.38978
484.69	64797.88936
484.874	64869.46681
485.057	64815.7694
485.24	64771.08704
485.423	64907.55492
485.607	64748.76796
485.79	64806.82819
485.973	64762.15765
486.156	64697.48941
486.34	64713.0878
486.523	64695.26165
486.706	64755.46214
486.889	64826.94926
487.072	64722.00435
487.256	64701.94537
487.439	64762.15765
487.622	64704.17357
487.805	64757.69383
487.988	64728.69328
488.171	64697.48941
488.354	64686.35204
488.537	64750.99921
488.72	64704.17357
488.903	64679.67134
489.086	64733.1533
489.269	64693.03403
489.452	64688.57923
489.635	64637.3902
489.818	64528.58486
490.001	64766.62205
490.184	64726.46349
490.367	64724.23385
490.55	64628.49547
490.732	64521.93418
490.915	64666.31383
491.098	64628.49547
491.281	64753.2306
491.464	64679.67134
491.647	64706.40191
491.829	64713.0878
492.012	64621.82591
492.195	64568.5151
492.378	64657.41168
492.56	64513.06855
492.743	64535.23677
492.926	64506.42077
493.108	64646.28721
493.291	64626.27214
493.474	64488.69941
493.656	64504.20512
493.839	64448.85831
494.022	64515.28475
494.204	64444.43423
494.387	64470.9868
494.569	64608.4906
494.752	64477.62801
494.934	64501.98961
495.117	64488.69941
495.299	64526.36783
495.482	64457.70808
495.664	64411.27091
495.847	64493.12893
496.029	64533.01933
496.212	64281.119
496.394	64504.20512
496.576	64457.70808
496.759	64550.76277
496.941	64373.72229
497.123	64219.51098
497.306	64526.36783
497.488	64440.0107
497.67	64508.63656
497.853	64501.98961
498.035	64375.92997
498.217	64309.75721
498.4	64380.34572
498.582	64530.80202
498.764	64455.49543
498.946	64384.762
499.128	64398.01405
499.311	64426.74336
499.493	64519.71757
499.675	64386.97034
499.857	64349.44662
500.039	64311.96106
500.221	64349.44662
500.403	64329.59659
500.585	64228.30595
500.767	64289.92841
500.949	64329.59659
501.132	64353.85918
501.314	64386.97034
501.496	64245.90206
501.678	64459.92086
501.859	64316.36915
502.041	64307.55348
502.223	64307.55348
502.405	64340.62306
502.587	64243.7021
502.769	64267.90877
502.951	64265.70752
503.133	64294.3339
503.315	64349.44662
503.497	64322.98228
503.678	64314.16504
503.86	64402.43247
504.042	64197.53246
504.224	64228.30595
504.406	64287.72586
504.587	64342.82875
504.769	64296.53684
504.951	64272.31166
505.132	64380.34572
505.314	64314.16504
505.496	64276.71507
505.678	64342.82875
505.859	64325.18692
506.041	64276.71507
506.222	64292.13109
506.404	64287.72586
506.586	64300.9431
506.767	64237.10298
506.949	64345.03458
507.13	64294.3339
507.312	64303.14643
507.493	64162.39322
507.675	64278.91697
507.856	64276.71507
508.038	64367.10006
508.219	64345.03458
508.401	64342.82875
508.582	64248.10215
508.764	64285.52344
508.945	64252.50272
509.126	64340.62306
509.308	64322.98228
509.489	64307.55348
509.671	64364.89292
509.852	64272.31166
510.033	64364.89292
510.214	64338.41751
510.396	64378.13778
510.577	64444.43423
510.758	64261.3054
510.94	64272.31166
511.121	64307.55348
511.302	64309.75721
511.483	64345.03458
511.664	64281.119
511.846	64393.59616
512.027	64311.96106
512.208	64375.92997
512.389	64362.68591
512.57	64278.91697
512.751	64316.36915
512.932	64298.73991
513.113	64208.52013
513.294	64331.80162
513.476	64318.5734
513.657	64351.65283
513.838	64426.74336
514.019	64287.72586
514.2	64367.10006
514.381	64311.96106
514.561	64292.13109
514.742	64389.17882
514.923	64320.77778
515.104	64303.14643
515.285	64347.24053
515.466	64378.13778
515.647	64415.69094
515.828	64270.11015
516.009	64314.16504
516.189	64389.17882
516.37	64424.5326
516.551	64398.01405
516.732	64398.01405
516.913	64362.68591
517.093	64391.38742
517.274	64398.01405
517.455	64239.30256
517.636	64311.96106
517.816	64303.14643
517.997	64327.39169
518.178	64334.00678
518.358	64433.37642
518.539	64360.47903
518.72	64342.82875
518.9	64331.80162
519.081	64345.03458
519.261	64294.3339
519.442	64210.71804
519.622	64327.39169
519.803	64331.80162
519.984	64281.119
520.164	64358.27228
520.345	64338.41751
520.525	64325.18692
520.705	64380.34572
520.886	64276.71507
521.066	64490.9141
521.247	64347.24053
521.427	64351.65283
521.608	64193.13828
521.788	64378.13778
521.968	64179.95879
522.149	64395.80504
522.329	64318.5734
522.509	64426.74336
522.69	64378.13778
522.87	64406.85142
523.05	64433.37642
523.231	64413.48086
523.411	64373.72229
523.591	64320.77778
523.771	64402.43247
523.951	64316.36915
524.132	64298.73991
524.312	64349.44662
524.492	64378.13778
524.672	64322.98228
524.852	64298.73991
525.032	64360.47903
525.213	64327.39169
525.393	64259.10454
525.573	64435.58771
525.753	64287.72586
525.933	64314.16504
526.113	64320.77778
526.293	64424.5326
526.473	64393.59616
526.653	64248.10215
526.833	64384.762
527.013	64442.2224
527.193	64358.27228
527.373	64373.72229
527.553	64347.24053
527.733	64316.36915
527.913	64404.64188
528.092	64544.10794
528.272	64329.59659
528.452	64386.97034
528.632	64466.56002
528.812	64371.51475
528.992	64320.77778
529.171	64353.85918
529.351	64448.85831
529.531	64442.2224
529.711	64338.41751
529.89	64440.0107
530.07	64331.80162
530.25	64245.90206
530.43	64250.30237
530.609	64373.72229
530.789	64356.06567
530.969	64345.03458
531.148	64413.48086
531.328	64451.07054
531.507	64404.64188
531.687	64318.5734
531.867	64444.43423
532.046	64303.14643
532.226	64409.0611
532.405	64347.24053
532.585	64369.30734
532.764	64391.38742
532.944	64245.90206
533.123	64373.72229
533.303	64424.5326
533.482	64248.10215
533.662	64400.22319
533.841	64342.82875
534.021	64307.55348
534.2	64395.80504
534.379	64440.0107
534.559	64378.13778
534.738	64338.41751
534.917	64479.84201
535.097	64369.30734
535.276	64364.89292
535.455	64322.98228
535.635	64457.70808
535.814	64402.43247
535.993	64334.00678
536.172	64466.56002
536.352	64428.95424
536.531	64448.85831
536.71	64356.06567
536.889	64375.92997
537.068	64415.69094
537.248	64435.58771
537.427	64298.73991
537.606	64369.30734
537.785	64373.72229
537.964	64389.17882
538.143	64453.28292
538.322	64404.64188
538.501	64371.51475
538.68	64426.74336
538.859	64322.98228
539.038	64462.13377
539.217	64462.13377
539.396	64530.80202
539.575	64386.97034
539.754	64369.30734
539.933	64334.00678
540.112	64555.20001
540.291	64393.59616
540.47	64395.80504
540.649	64398.01405
540.828	64555.20001
541.007	64364.89292
541.186	64473.2004
541.364	64373.72229
541.543	64455.49543
541.722	64411.27091
541.901	64448.85831
542.08	64298.73991
542.258	64336.21208
542.437	64479.84201
542.616	64345.03458
542.795	64499.77423
542.973	64455.49543
543.152	64464.34683
543.331	64442.2224
543.509	64488.69941
543.688	64369.30734
543.867	64466.56002
544.045	64479.84201
544.224	64329.59659
544.402	64070.30521
544.581	64433.37642
544.76	64530.80202
544.938	64424.5326
545.117	64393.59616
545.295	64442.2224
545.474	64440.0107
545.652	64515.28475
545.831	64466.56002
546.009	64336.21208
546.188	64440.0107
546.366	64453.28292
546.544	64431.16527
546.723	64426.74336
546.901	64420.1115
547.08	64362.68591
547.258	64473.2004
547.436	64470.9868
547.615	64519.71757
547.793	64446.6462
547.971	64428.95424
548.15	64444.43423
548.328	64391.38742
548.506	64329.59659
548.684	64303.14643
548.863	64464.34683
549.041	64495.34389
549.219	64552.98132
549.397	64415.69094
549.576	64466.56002
549.754	64424.5326
549.932	64451.07054
550.11	64493.12893
550.288	64528.58486
550.466	64615.15762
550.644	64391.38742
550.822	64488.69941
551.001	64528.58486
551.179	64581.83522
551.357	64517.50109
551.535	64459.92086
551.713	64519.71757
551.891	64524.15094
552.069	64568.5151
552.247	64528.58486
552.425	64564.07618
552.603	64564.07618
552.781	64541.88994
552.958	64572.95458
553.136	64550.76277
553.314	64666.31383
553.492	64621.82591
553.67	64648.51182
553.848	64661.86247
554.026	64759.92567
554.204	64742.07509
554.381	64681.8981
554.559	64744.3059
554.737	64818.00508
554.915	64750.99921
555.092	64708.63039
555.27	64782.25209
555.448	64744.3059
555.626	64795.65502
555.803	64882.90467
555.981	64710.85902
556.159	64840.37001
556.336	64849.32017
556.514	64912.03876
556.692	64867.22769
556.869	64840.37001
557.047	64835.89583
557.224	64867.22769
557.402	64882.90467
557.58	64806.82819
557.757	64921.00826
557.935	65019.83523
558.112	64925.49393
558.29	64914.2809
558.467	65019.83523
558.645	65022.08479
558.822	65035.58544
559	65008.58977
559.177	64983.86349
559.354	64959.15597
559.532	64965.89253
559.709	64997.34822
559.887	64959.15597
560.064	65060.35134
560.241	64936.71077
560.419	64956.91076
560.596	64936.71077
560.773	64929.98021
560.951	64912.03876
561.128	64795.65502
561.305	65024.3345
561.482	64965.89253
561.66	64914.2809
561.837	64909.79676
562.014	64959.15597
562.191	65033.33494
562.368	64979.36982
562.546	64912.03876
562.723	65013.08749
562.9	64981.61657
563.077	64907.55492
563.254	65004.09268
563.431	64972.63048
563.608	64885.14485
563.785	65001.84437
563.962	64941.19858
564.139	65031.08459
564.317	64914.2809
564.494	65046.8403
564.671	64849.32017
564.848	64945.68701
565.025	64997.34822
565.201	65024.3345
565.378	64954.6657
565.555	64952.42079
565.732	64988.35778
565.909	64997.34822
566.086	64979.36982
566.263	65028.83441
566.44	64983.86349
566.617	65024.3345
566.794	64945.68701
566.97	65008.58977
567.147	65078.3749
567.324	64981.61657
567.501	65042.33788
567.678	64979.36982
567.854	65001.84437
568.031	65112.19652
568.208	64981.61657
568.384	65046.8403
568.561	65022.08479
568.738	65046.8403
568.915	65024.3345
569.091	65098.66357
569.268	65058.0991
569.444	65107.6849
569.621	65078.3749
569.798	65105.42932
569.974	65049.09175
570.151	65044.58901
570.327	65060.35134
570.504	65033.33494
570.681	65127.99225
570.857	65096.40863
571.034	65105.42932
571.21	65055.84703
571.387	65202.56444
571.563	65175.42682
571.739	65013.08749
571.916	65225.19713
572.092	65150.57125
572.269	65098.66357
572.445	65112.19652
572.622	65159.60737
572.798	65098.66357
572.974	65152.83004
573.151	65209.35253
573.327	65150.57125
573.503	65049.09175
573.68	65211.61555
573.856	65204.82697
574.032	65209.35253
574.208	65089.64479
574.385	65114.45257
574.561	65227.4613
574.737	65200.30208
574.913	65096.40863
575.089	65200.30208
575.266	65204.82697
575.442	65216.14209
575.618	65055.84703
575.794	65177.6874
575.97	65186.73131
576.146	65116.70878
576.322	65182.20903
576.499	65073.86806
576.675	65091.89925
576.851	65094.15386
577.027	65017.58582
577.203	65150.57125
577.379	65191.25425
577.555	65146.05416
577.731	65100.91866
577.907	64775.55262
578.083	65055.84703
578.259	65127.99225
578.435	65103.17391
578.611	64983.86349
578.786	64999.59622
578.962	65051.34335
579.138	65164.1264
579.314	65055.84703
579.49	65127.99225
579.666	65031.08459
579.842	65107.6849
580.017	65107.6849
580.193	65094.15386
580.369	65042.33788
580.545	65067.10899
580.72	64972.63048
580.896	65103.17391
581.072	64992.85269
581.248	65040.08691
581.423	64968.13836
581.599	65071.61488
581.775	65031.08459
581.95	65033.33494
582.126	65060.35134
582.302	64963.64685
582.477	65026.58438
582.653	65087.3905
582.829	65071.61488
583.004	65161.86681
583.18	65058.0991
583.355	65096.40863
583.531	65026.58438
583.706	65004.09268
583.882	65096.40863
584.057	65179.94813
584.233	65042.33788
584.408	64943.44272
584.584	65062.60373
584.759	65125.73524
584.935	65125.73524
585.11	65112.19652
585.285	65146.05416
585.461	65218.4056
585.636	65118.96516
585.812	65137.02192
585.987	65204.82697
586.162	65191.25425
586.338	65132.50676
586.513	65227.4613
586.688	65288.65655
586.863	65166.38616
587.039	65222.93312
587.214	65198.03987
587.389	65193.51596
587.564	65234.25481
587.74	65191.25425
587.915	65359.06822
588.09	65304.54181
588.265	65241.0498
588.44	65318.16429
588.615	65302.27198
588.791	65290.92537
588.966	65345.42748
589.141	65363.61649
589.316	65284.11941
589.491	65297.73283
589.666	65268.24468
589.841	65231.99014
590.016	65343.15462
590.191	65259.17706
590.366	65390.92048
590.541	65409.13684
590.716	65359.06822
590.891	65336.33705
591.066	65431.9228
591.241	65406.85919
591.416	65425.0852
591.591	65413.69265
591.766	65413.69265
591.941	65527.81415
592.116	65541.53828
592.29	65422.80634
592.465	65470.69875
592.64	65585.04038
592.815	65518.66828
592.99	65569.00577
593.165	65527.81415
593.339	65550.69125
593.514	65520.95448
593.689	65443.32227
593.864	65525.52741
594.038	65552.97994
594.213	65445.60269
594.388	65527.81415
594.562	65504.95477
594.737	65443.32227
594.912	65523.24086
595.086	65580.45816
595.261	65532.38815
595.436	65461.57047
595.61	65482.11304
595.785	65475.26394
595.959	65470.69875
596.134	65511.81073
596.309	65509.52524
596.483	65516.38225
596.658	65504.95477
596.832	65532.38815
597.007	65406.85919
597.181	65564.42607
597.356	65479.82983
597.53	65569.00577
597.704	65541.53828
597.879	65500.38502
598.053	65504.95477
598.228	65418.24915
598.402	65415.97081
598.576	65516.38225
598.751	65431.9228
598.925	65491.24762
599.1	65491.24762
599.274	65536.96286
599.448	65502.66981
599.622	65409.13684
599.797	65486.67998
599.971	65486.67998
600.145	65363.61649
600.32	65459.28883
600.494	65484.39642
600.668	65436.48207
600.842	65425.0852
601.016	65534.67541
601.191	65436.48207
601.365	65227.4613
601.539	65457.00737
601.713	65491.24762
601.887	65400.02728
602.061	65516.38225
602.235	65438.76197
602.409	65509.52524
602.583	65447.88328
602.758	65571.29589
602.932	65509.52524
603.106	65573.58619
603.28	65523.24086
603.454	65477.5468
603.628	65431.9228
603.802	65527.81415
603.976	65511.81073
604.149	65493.53171
604.323	65447.88328
604.497	65525.52741
604.671	65443.32227
604.845	65477.5468
605.019	65516.38225
605.193	65527.81415
605.367	65441.04203
605.541	65472.98126
605.714	65418.24915
605.888	65427.36423
606.062	65498.10041
606.236	65601.08379
606.41	65384.09217
606.583	65509.52524
606.757	65532.38815
606.931	65477.5468
607.105	65511.81073
607.278	65516.38225
607.452	65562.13649
607.626	65427.36423
607.799	65511.81073
607.973	65530.10106
608.147	65470.69875
608.32	65527.81415
608.494	65482.11304
608.668	65509.52524
608.841	65409.13684
609.015	65420.52766
609.188	65472.98126
609.362	65582.74918
609.535	65495.81597
609.709	65520.95448
609.882	65484.39642
610.056	65457.00737
610.229	65486.67998
610.403	65488.96371
610.576	65384.09217
610.75	65457.00737
610.923	65486.67998
611.097	65543.82625
611.27	65411.41466
611.443	65477.5468
611.617	65578.16733
611.79	65582.74918
611.963	65475.26394
612.137	65486.67998
612.31	65482.11304
612.483	65509.52524
612.657	65493.53171
612.83	65550.69125
613.003	65548.40274
613.177	65509.52524
613.35	65527.81415
613.523	65486.67998
613.696	65463.85228
613.869	65601.08379
614.043	65438.76197
614.216	65486.67998
614.389	65525.52741
614.562	65447.88328
614.735	65502.66981
614.908	65511.81073
615.082	65445.60269
615.255	65491.24762
615.428	65454.72609
615.601	65532.38815
615.774	65504.95477
615.947	65459.28883
616.12	65363.61649
616.293	65400.02728
616.466	65413.69265
616.639	65431.9228
616.812	65463.85228
616.985	65381.81641
617.158	65461.57047
617.331	65479.82983
617.504	65459.28883
617.677	65536.96286
617.85	65491.24762
618.022	65504.95477
618.195	65486.67998
618.368	65422.80634
618.541	65409.13684
618.714	65488.96371
618.887	65477.5468
619.059	65443.32227
619.232	65486.67998
619.405	65329.521
619.578	65359.06822
619.751	65468.41642
619.923	65445.60269
620.096	65377.26541
620.269	65397.75032
620.441	65447.88328
620.614	65488.96371
620.787	65415.97081
620.96	65429.64343
621.132	65334.06486
621.305	65306.8118
621.477	65363.61649
621.65	65450.16404
621.823	65463.85228
621.995	65359.06822
622.168	65368.16545
622.34	65370.44018
622.513	65381.81641
622.685	65377.26541
622.858	65359.06822
623.03	65418.24915
623.203	65445.60269
623.375	65397.75032
623.548	65438.76197
623.72	65370.44018
623.893	65372.71509
624.065	65395.47354
624.238	65388.6442
624.41	65488.96371
624.582	65327.24932
624.755	65404.58172
624.927	65381.81641
625.1	65374.99016
625.272	65447.88328
625.444	65340.88192
625.617	65254.64425
625.789	65331.79284
625.961	65393.19692
626.133	65329.521
626.306	65315.89346
626.478	65315.89346
626.65	65300.00232
626.822	65381.81641
626.995	65279.58294
627.167	65290.92537
627.339	65361.34227
627.511	65252.3781
627.683	65290.92537
627.855	65261.44372
628.027	65340.88192
628.2	65275.04713
628.372	65300.00232
628.544	65302.27198
628.716	65300.00232
628.888	65277.31495
629.06	65213.87873
629.232	65377.26541
629.404	65302.27198
629.576	65218.4056
629.748	65318.16429
629.92	65179.94813
630.092	65168.64608
630.264	65265.97752
630.436	65343.15462
630.608	65275.04713
630.78	65270.51199
630.952	65313.62279
631.124	65236.51964
631.295	65259.17706
631.467	65311.35229
631.639	65227.4613
631.811	65306.8118
631.983	65286.38789
632.155	65286.38789
632.326	65281.85109
632.498	65277.31495
632.67	65286.38789
632.842	65320.4353
633.014	65265.97752
633.185	65209.35253
633.357	65297.73283
633.529	65170.90617
633.7	65204.82697
633.872	65320.4353
634.044	65322.70647
634.215	65211.61555
634.387	65286.38789
634.559	65363.61649
634.73	65306.8118
634.902	65354.52063
635.074	65290.92537
635.245	65281.85109
635.417	65304.54181
635.588	65218.4056
635.76	65363.61649
635.931	65349.97371
636.103	65363.61649
636.274	65259.17706
636.446	65311.35229
636.617	65245.58063
636.789	65338.6094
636.96	65331.79284
637.132	65352.24709
637.303	65340.88192
637.474	65372.71509
637.646	65290.92537
637.817	65365.89089
637.989	65318.16429
638.16	65377.26541
638.331	65400.02728
638.503	65263.71054
638.674	65295.46351
638.845	65400.02728
639.017	65311.35229
639.188	65313.62279
639.359	65402.30441
639.53	65388.6442
639.702	65318.16429
639.873	65397.75032
640.044	65361.34227
640.215	65372.71509
640.387	65272.77948
640.558	65254.64425
640.729	65227.4613
640.9	65256.91058
641.071	65268.24468
641.242	65272.77948
641.413	65284.11941
641.585	65329.521
641.756	65256.91058
641.927	65384.09217
642.098	65309.08196
642.269	65306.8118
642.44	65372.71509
642.611	65300.00232
642.782	65306.8118
642.953	65216.14209
643.124	65259.17706
643.295	65381.81641
643.466	65247.84628
643.637	65311.35229
643.808	65293.19435
643.979	65225.19713
644.15	65198.03987
644.32	65252.3781
644.491	65270.51199
644.662	65418.24915
644.833	65295.46351
645.004	65261.44372
645.175	65304.54181
645.346	65241.0498
645.516	65334.06486
645.687	65286.38789
645.858	65288.65655
646.029	65238.78464
646.199	65320.4353
646.37	65281.85109
646.541	65345.42748
646.712	65218.4056
646.882	65265.97752
647.053	65297.73283
647.224	65293.19435
647.394	65279.58294
647.565	65284.11941
647.736	65322.70647
647.906	65356.79434
648.077	65284.11941
648.248	65354.52063
648.418	65327.24932
648.589	65370.44018
648.759	65311.35229
648.93	65313.62279
649.1	65372.71509
649.271	65241.0498
649.441	65250.11211
649.612	65322.70647
649.782	65247.84628
649.953	65229.72564
650.123	65281.85109
650.294	65222.93312
650.464	65263.71054
650.635	64970.38434
650.805	65286.38789
650.975	65159.60737
651.146	65322.70647
651.316	65277.31495
651.487	65306.8118
651.657	65309.08196
651.827	65241.0498
651.998	65363.61649
652.168	65250.11211
652.338	65313.62279
652.508	65379.54082
652.679	65302.27198
652.849	65222.93312
653.019	65259.17706
653.189	65254.64425
653.36	65268.24468
653.53	65363.61649
653.7	65270.51199
653.87	65384.09217
654.04	65318.16429
654.211	65336.33705
654.381	65241.0498
654.551	65354.52063
654.721	65263.71054
654.891	65338.6094
655.061	65261.44372
655.231	65372.71509
655.401	65386.3681
655.571	65352.24709
655.741	65270.51199
655.911	65318.16429
656.081	65256.91058
656.251	65388.6442
656.421	65284.11941
656.591	65379.54082
656.761	65295.46351
656.931	65420.52766
657.101	65386.3681
657.271	65331.79284
657.441	65309.08196
657.611	65422.80634
657.781	65313.62279
657.951	65356.79434
658.121	65295.46351
658.291	65290.92537
658.46	65397.75032
658.63	65324.97781
658.8	65352.24709
658.97	65320.4353
659.14	65268.24468
659.309	65347.70051
659.479	65302.27198
659.649	65377.26541
659.819	65293.19435
659.988	65413.69265
660.158	65445.60269
660.328	65324.97781
660.497	65388.6442
660.667	65374.99016
660.837	65324.97781
661.006	65304.54181
661.176	65463.85228
661.346	65354.52063
661.515	65395.47354
661.685	65400.02728
661.854	65356.79434
662.024	65384.09217
662.194	65345.42748
662.363	65334.06486
662.533	65386.3681
662.702	65482.11304
662.872	65431.9228
663.041	65322.70647
663.211	65468.41642
663.38	65525.52741
663.55	65388.6442
663.719	65384.09217
663.889	65507.23992
664.058	65463.85228
664.227	65409.13684
664.397	65395.47354
664.566	65393.19692
664.735	65482.11304
664.905	65443.32227
665.074	65443.32227
665.244	65427.36423
665.413	65491.24762
665.582	65404.58172
665.751	65438.76197
665.921	65441.04203
666.09	65450.16404
666.259	65402.30441
666.428	65445.60269
666.598	65450.16404
666.767	65393.19692
666.936	65402.30441
667.105	65381.81641
667.275	65434.20235
667.444	65431.9228
667.613	65338.6094
667.782	65491.24762
667.951	65395.47354
668.12	65422.80634
668.289	65434.20235
668.458	65386.3681
668.628	65488.96371
668.797	65457.00737
668.966	65472.98126
669.135	65354.52063
669.304	65425.0852
669.473	65425.0852
669.642	65452.44498
669.811	65454.72609
669.98	65406.85919
670.149	65384.09217
670.318	65500.38502
670.487	65468.41642
670.656	65413.69265
670.824	65459.28883
670.993	65509.52524
671.162	65411.41466
671.331	65397.75032
671.5	65461.57047
671.669	65482.11304
671.838	65498.10041
672.007	65431.9228
672.175	65447.88328
672.344	65459.28883
672.513	65318.16429
672.682	65493.53171
672.85	65409.13684
673.019	65377.26541
673.188	65352.24709
673.357	65406.85919
673.525	65498.10041
673.694	65498.10041
673.863	65447.88328
674.032	65409.13684
674.2	65475.26394
674.369	65475.26394
674.537	65418.24915
674.706	65514.0964
674.875	65466.13426
675.043	65445.60269
675.212	65431.9228
675.381	65431.9228
675.549	65486.67998
675.718	65504.95477
675.886	65457.00737
676.055	65527.81415
676.223	65500.38502
676.392	65436.48207
676.56	65450.16404
676.729	65461.57047
676.897	65523.24086
677.066	65486.67998
677.234	65484.39642
677.403	65587.33175
677.571	65491.24762
677.739	65482.11304
677.908	65504.95477
678.076	65457.00737
678.244	65470.69875
678.413	65520.95448
678.581	65452.44498
678.75	65507.23992
678.918	65511.81073
679.086	65495.81597
679.254	65589.62331
679.423	65400.02728
679.591	65495.81597
679.759	65491.24762
679.928	65518.66828
680.096	65470.69875
680.264	65504.95477
680.432	65466.13426
680.6	65493.53171
680.769	65445.60269
680.937	65546.11441
681.105	65445.60269
681.273	65443.32227
681.441	65498.10041
681.609	65390.92048
681.777	65498.10041
681.945	65463.85228
682.114	65520.95448
682.282	65472.98126
682.45	65504.95477
682.618	65532.38815
682.786	65589.62331
682.954	65484.39642
683.122	65313.62279
683.29	65411.41466
683.458	65518.66828
683.626	65514.0964
683.794	65484.39642
683.962	65603.37643
684.13	65429.64343
684.298	65543.82625
684.465	65477.5468
684.633	65532.38815
684.801	65546.11441
684.969	65520.95448
685.137	65441.04203
685.305	65541.53828
685.473	65482.11304
685.64	65541.53828
685.808	65619.42996
685.976	65413.69265
686.144	65569.00577
686.312	65400.02728
686.479	65562.13649
686.647	65552.97994
686.815	65511.81073
686.983	65530.10106
687.15	65493.53171
687.318	65527.81415
687.486	65495.81597
687.653	65482.11304
687.821	65534.67541
687.989	65484.39642
688.156	65575.87667
688.324	65550.69125
688.492	65493.53171
688.659	65637.78773
688.827	65466.13426
688.994	65559.84708
689.162	65541.53828
689.329	65434.20235
689.497	65562.13649
689.665	65603.37643
689.832	65491.24762
690	65472.98126
690.167	65571.29589
690.335	65532.38815
690.502	65555.26881
690.669	65491.24762
690.837	65534.67541
691.004	65443.32227
691.172	65441.04203
691.339	65425.0852
691.507	65594.20696
691.674	65559.84708
691.841	65569.00577
692.009	65607.96225
692.176	65523.24086
692.343	65569.00577
692.511	65530.10106
692.678	65536.96286
692.845	65523.24086
693.013	65578.16733
693.18	65488.96371
693.347	65509.52524
693.514	65612.54879
693.682	65511.81073
693.849	65557.55786
694.016	65536.96286
694.183	65468.41642
694.35	65651.56371
694.518	65564.42607
694.685	65566.71583
694.852	65562.13649
695.019	65656.15716
695.186	65525.52741
695.353	65447.88328
695.52	65502.66981
695.687	65498.10041
695.855	65516.38225
696.022	65514.0964
696.189	65559.84708
696.356	65578.16733
696.523	65628.60739
696.69	65445.60269
696.857	65656.15716
697.024	65484.39642
697.191	65575.87667
697.358	65486.67998
697.525	65468.41642
697.692	65518.66828
697.858	65594.20696
698.025	65502.66981
698.192	65507.23992
698.359	65607.96225
698.526	65518.66828
698.693	65525.52741
698.86	65569.00577
699.027	65548.40274
699.193	65614.84233
699.36	65569.00577
699.527	65580.45816
699.694	65603.37643
699.861	65603.37643
700.027	65445.60269
700.194	65491.24762
700.361	65507.23992
700.528	65498.10041
700.694	65552.97994
700.861	65589.62331
701.028	65520.95448
701.195	65520.95448
701.361	65511.81073
701.528	65559.84708
701.694	65502.66981
701.861	65628.60739
702.028	65429.64343
702.194	65488.96371
702.361	65559.84708
702.528	65557.55786
702.694	65550.69125
702.861	65404.58172
703.027	65518.66828
703.194	65575.87667
703.36	65520.95448
703.527	65619.42996
703.693	65466.13426
703.86	65454.72609
704.026	65543.82625
704.193	65695.23113
704.359	65541.53828
704.526	65591.91505
