Data from Sun spf750_Subt2__0__10-05-11-777.txt Node

Date: Tue Sep 23 10:05:11 EDT 2025
User: brett
Spectrometer: USB4F03499
Trigger mode: 4
Integration Time (sec): 1.000000E-1
Scans to average: 1
Electric dark correction enabled: true
Nonlinearity correction enabled: true
Boxcar width: 0
XAxis mode: Wavelengths
Number of Pixels in Spectrum: 3648
>>>>>Begin Spectral Data<<<<<
0	-33.28892
0.225	-33.28892
0.449	-33.28892
0.674	-88.61213
0.898	-17.08989
1.123	53.92764
1.347	-65.15286
1.572	44.88237
1.796	77.07192
2.021	99.78572
2.245	12.76434
2.469	-21.60129
2.694	-94.88813
2.918	19.6788
3.143	-21.61669
3.367	-30.75523
3.591	-74.47138
3.815	5.92135
4.04	837.39348
4.264	999.90011
4.488	1068.4579
4.712	955.95357
4.936	983.67832
5.161	1027.7676
5.385	1001.98139
5.609	982.49855
5.833	1091.38045
6.057	1025.97574
6.281	973.67777
6.505	1110.18279
6.729	1011.53546
6.953	1205.09768
7.177	930.75492
7.401	986.87273
7.625	1086.02701
7.849	1040.88912
8.073	1136.93036
8.297	1044.44421
8.521	1016.96864
8.744	961.64179
8.968	1217.69284
9.192	1102.40794
9.416	1143.1371
9.64	1154.80897
9.863	1125.93253
10.087	1178.82734
10.311	1112.24248
10.535	1036.55456
10.758	984.45061
10.982	1091.44734
11.205	1084.97051
11.429	1077.99875
11.653	1082.05189
11.876	976.33201
12.1	1189.72054
12.323	1126.8081
12.547	1195.93695
12.77	1258.6425
12.994	1174.084
13.217	1131.94296
13.441	1127.59303
13.664	1260.85023
13.887	1174.23826
14.111	1248.16722
14.334	1045.74775
14.557	1144.02857
14.781	1132.33951
15.004	1129.26864
15.227	1136.60402
15.451	1221.26116
15.674	1109.29831
15.897	1131.97864
16.12	1322.99862
16.343	1274.80276
16.567	1342.75272
16.79	1317.38757
17.013	1218.18346
17.236	1292.70097
17.459	1313.92319
17.682	1173.17444
17.905	1313.92319
18.128	1402.06382
18.351	1281.15162
18.574	1244.42321
18.797	1324.08715
19.02	1219.1437
19.243	1446.32568
19.466	1297.35984
19.689	1311.13895
19.911	1338.31447
20.134	1360.71753
20.357	1361.95231
20.58	1331.71165
20.803	1366.35084
21.025	1313.83347
21.248	1475.17641
21.471	1327.7063
21.694	1284.94262
21.916	1398.33608
22.139	1476.4952
22.362	1402.9219
22.584	1381.22175
22.807	1430.03042
23.029	1276.30618
23.252	1357.27992
23.475	1384.25838
23.697	1414.41925
23.92	1478.06824
24.142	1519.88473
24.365	1425.06677
24.587	1452.35585
24.809	1548.53793
25.032	1535.05486
25.254	1413.14906
25.477	1524.11456
25.699	1623.49385
25.921	1533.42556
26.144	1559.90617
26.366	1622.15212
26.588	1676.5242
26.81	1616.90816
27.033	1589.05796
27.255	1576.03795
27.477	1673.48144
27.699	1687.01122
27.921	1724.75278
28.144	1649.04464
28.366	1739.68688
28.588	1835.75643
28.81	1854.25609
29.032	1753.54006
29.254	1895.86569
29.476	1870.42247
29.698	1982.58192
29.92	1997.4849
30.142	1964.47082
30.364	2048.02396
30.586	2237.75234
30.808	2156.08284
31.029	2154.02828
31.251	2344.66134
31.473	2343.35521
31.695	2394.4639
31.917	2438.9186
32.139	2422.58828
32.36	2499.29471
32.582	2612.83473
32.804	2791.5375
33.026	2676.88588
33.247	2717.34427
33.469	2883.19908
33.691	2951.36764
33.912	3157.54854
34.134	3079.4153
34.355	3152.05602
34.577	3481.49803
34.798	3298.31397
35.02	3502.93889
35.242	3536.16972
35.463	3708.29169
35.684	3889.2902
35.906	3977.75245
36.127	4081.47299
36.349	4198.0575
36.57	4411.76448
36.792	4822.83262
37.013	4789.77563
37.234	4796.48253
37.456	4989.74188
37.677	5364.29798
37.898	5341.62738
38.119	5694.08626
38.341	5879.44725
38.562	5956.68647
38.783	6200.51907
39.004	6043.33367
39.225	6367.4249
39.447	6929.00856
39.668	7126.02781
39.889	7382.69868
40.11	7536.19542
40.331	7901.26798
40.552	8140.55798
40.773	8391.70981
40.994	8822.01156
41.215	8923.62048
41.436	9617.25975
41.657	9914.3079
41.878	10453.36381
42.099	10857.64168
42.32	11288.02167
42.54	11627.6419
42.761	12342.6509
42.982	12693.55069
43.203	13532.53796
43.424	13864.35441
43.645	14204.96257
43.865	14837.60712
44.086	15005.09025
44.307	16044.35417
44.527	16417.00134
44.748	16789.00544
44.969	17446.74122
45.189	17448.18443
45.41	17749.54139
45.631	18948.25342
45.851	18864.09224
46.072	19370.30357
46.292	19772.82435
46.513	19995.82268
46.733	21127.78855
46.954	21377.73032
47.174	22340.82117
47.395	22170.01735
47.615	23543.07153
47.836	24214.16466
48.056	25089.63688
48.276	24709.99912
48.497	24777.98502
48.717	26137.18882
48.937	25986.00553
49.158	26898.00234
49.378	27393.03675
49.598	27657.28601
49.818	29071.00757
50.038	29012.33584
50.259	30030.18896
50.479	30352.75471
50.699	31605.3114
50.919	33175.79682
51.139	33784.17401
51.359	34356.87748
51.579	36114.12472
51.799	35596.03687
52.02	36906.57022
52.24	38218.02683
52.46	39060.81761
52.68	40128.41377
52.899	39346.56915
53.119	41061.27586
53.339	44262.1717
53.559	43891.40312
53.779	45474.5794
53.999	47875.40183
54.219	48462.36977
54.439	50318.90973
54.658	50729.42386
54.878	53782.95375
55.098	54733.90418
55.318	54726.42245
55.538	57025.76506
55.757	58054.51241
55.977	58495.29602
56.197	59743.38687
56.416	60866.35512
56.636	62405.97333
56.855	65610.04962
57.075	65525.27514
57.295	65621.52459
57.514	65662.87228
57.734	65559.61353
57.953	65575.65191
58.173	65566.48604
58.392	65603.16682
58.612	65612.34425
58.831	65616.93406
59.051	65555.03275
59.27	65488.69164
59.489	65571.06862
59.709	65584.82066
59.928	65605.46091
60.147	65589.40611
60.367	65614.63907
60.586	65536.71681
60.805	65596.28565
61.024	65577.94383
61.244	65658.27516
61.463	65591.69911
61.682	65568.77724
61.901	65557.32305
62.12	65614.63907
62.34	65577.94383
62.559	65582.5282
62.778	65459.0008
62.997	65603.16682
63.216	65646.78557
63.435	65639.89402
63.654	65488.69164
63.873	65600.87292
64.092	65587.11329
64.311	65527.56312
64.53	65566.48604
64.749	65584.82066
64.968	65573.36017
65.187	65669.76933
65.405	65587.11329
65.624	65582.5282
65.843	65561.90419
66.062	65571.06862
66.281	65534.42812
66.499	65658.27516
66.718	65639.89402
66.937	65557.32305
67.156	65573.36017
67.374	65612.34425
67.593	65474.98448
67.812	65582.5282
68.03	65593.99229
68.249	65642.19102
68.467	65612.34425
68.686	65545.87335
68.905	65534.42812
69.123	65704.27956
69.342	65577.94383
69.56	65607.75518
69.779	65681.26812
69.997	65555.03275
70.216	65596.28565
70.434	65571.06862
70.652	65541.29472
70.871	65587.11329
71.089	65614.63907
71.307	65655.97687
71.526	65564.19503
71.744	65621.52459
71.962	65614.63907
72.181	65619.22924
72.399	65612.34425
72.617	65568.77724
72.835	65552.74263
73.054	65621.52459
73.272	65598.5792
73.49	65610.04962
73.708	65662.87228
73.926	65653.67877
74.144	65649.08312
74.362	65564.19503
74.58	65598.5792
74.798	65596.28565
75.016	65580.23592
75.234	65612.34425
75.452	65587.11329
75.67	65550.45269
75.888	65623.82013
76.106	65525.27514
76.324	65658.27516
76.542	65662.87228
76.76	65582.5282
76.978	65593.99229
77.196	65626.11586
77.413	65552.74263
77.631	65529.85127
77.849	65637.5972
78.067	65548.16293
78.284	65545.87335
78.502	65603.16682
78.72	65603.16682
78.938	65658.27516
79.155	65639.89402
79.373	65593.99229
79.59	65639.89402
79.808	65603.16682
80.026	65628.41176
80.243	65612.34425
80.461	65502.40514
80.678	65486.40667
80.896	65545.87335
81.113	65575.65191
81.331	65607.75518
81.548	65401.98601
81.766	65541.29472
81.983	65564.19503
82.2	65614.63907
82.418	65669.76933
82.635	65534.42812
82.852	65438.46295
83.07	65584.82066
83.287	65596.28565
83.504	65561.90419
83.722	65488.69164
83.939	65577.94383
84.156	65481.83727
84.373	65635.30057
84.591	65593.99229
84.808	65580.23592
85.025	65541.29472
85.242	65614.63907
85.459	65573.36017
85.676	65584.82066
85.893	65651.38086
86.11	65566.48604
86.327	65568.77724
86.544	65580.23592
86.761	65610.04962
86.978	65541.29472
87.195	65575.65191
87.412	65685.86893
87.629	65630.70785
87.846	65591.69911
88.063	65506.97772
88.28	65584.82066
88.497	65593.99229
88.713	65623.82013
88.93	65649.08312
89.147	65610.04962
89.364	65550.45269
89.58	65577.94383
89.797	65550.45269
90.014	65580.23592
90.231	65527.56312
90.447	65605.46091
90.664	65550.45269
90.881	65559.61353
91.097	65513.83792
91.314	65520.69972
91.53	65598.5792
91.747	65568.77724
91.963	65633.00412
92.18	65584.82066
92.396	65584.82066
92.613	65571.06862
92.829	65669.76933
93.046	65653.67877
93.262	65644.48821
93.479	65552.74263
93.695	65559.61353
93.911	65593.99229
94.128	65644.48821
94.344	65506.97772
94.56	65545.87335
94.777	65692.77152
94.993	65623.82013
95.209	65518.41227
95.426	65365.55327
95.642	65646.78557
95.858	65607.75518
96.074	65591.69911
96.29	65658.27516
96.506	65587.11329
96.723	65568.77724
96.939	65639.89402
97.155	65628.41176
97.371	65577.94383
97.587	65610.04962
97.803	65612.34425
98.019	65603.16682
98.235	65545.87335
98.451	65635.30057
98.667	65488.69164
98.883	65626.11586
99.099	65658.27516
99.315	65630.70785
99.53	65571.06862
99.746	65603.16682
99.962	65637.5972
100.178	65593.99229
100.394	65596.28565
100.61	65662.87228
100.825	65548.16293
101.041	65626.11586
101.257	65573.36017
101.473	65577.94383
101.688	65559.61353
101.904	65616.93406
102.12	65584.82066
102.335	65571.06862
102.551	65616.93406
102.766	65525.27514
102.982	65603.16682
103.198	65623.82013
103.413	65582.5282
103.629	65614.63907
103.844	65607.75518
104.06	65596.28565
104.275	65543.58395
104.49	65561.90419
104.706	65635.30057
104.921	64999.07344
105.137	65582.5282
105.352	65516.12501
105.567	65596.28565
105.783	65573.36017
105.998	65566.48604
106.213	65548.16293
106.429	65633.00412
106.644	11703.72911
106.859	11326.01769
107.074	11065.27429
107.29	10890.15139
107.505	10984.6342
107.72	11127.12553
107.935	11389.5452
108.15	11256.42012
108.365	11177.58786
108.58	11473.23825
108.795	11552.99851
109.01	11084.45768
109.226	11673.6787
109.441	11584.63573
109.656	11753.72775
109.871	12084.20647
110.085	11624.88449
110.3	11346.43935
110.515	11789.11064
110.73	11817.80775
110.945	12433.83923
111.16	12362.43131
111.375	12860.96205
111.59	12985.72539
111.804	12484.11003
112.019	12073.21887
112.234	12601.71221
112.449	12717.24725
112.663	13169.62532
112.878	13156.25387
113.093	12806.88318
113.308	12756.1782
113.522	13012.30127
113.737	12744.89945
113.951	13414.20512
114.166	13085.18512
114.381	13545.80732
114.595	13126.90676
114.81	13145.51213
115.024	13171.36697
115.239	13555.45655
115.453	14388.59143
115.668	14683.64171
115.882	13984.58887
116.097	14053.45544
116.311	13958.49734
116.525	14712.97647
116.74	15357.40461
116.954	15078.54993
117.169	14876.00706
117.383	14958.73062
117.597	15578.49423
117.811	15868.69581
118.026	15456.23908
118.24	16567.60377
118.454	16395.51649
118.668	16665.123
118.883	16112.36226
119.097	16517.16587
119.311	16413.89137
119.525	17492.04129
119.739	16718.47449
119.953	16607.46149
120.167	16990.27552
120.381	17534.55091
120.595	18145.04659
120.809	18137.64609
121.023	18368.67431
121.237	19105.8737
121.451	18970.90493
121.665	19270.87072
121.879	19714.02426
122.093	19708.83495
122.307	19241.09611
122.521	20117.7326
122.735	20194.44471
122.949	20725.60101
123.163	21049.06689
123.376	21786.18357
123.59	22133.78735
123.804	21908.27156
124.018	22225.707
124.231	22739.75218
124.445	22473.7841
124.659	22506.3912
124.872	23465.01428
125.086	24049.7462
125.3	23768.27951
125.513	25556.26979
125.727	26475.15482
125.94	26542.63855
126.154	27211.36352
126.368	27846.6549
126.581	27566.56632
126.795	28348.50513
127.008	30649.87308
127.222	31934.5685
127.435	32113.23541
127.648	34436.89779
127.862	35599.2459
128.075	37636.82531
128.289	41208.88747
128.502	42264.13686
128.715	44687.06307
128.929	48598.47851
129.142	52469.8574
129.355	56468.75269
129.568	62044.34002
129.782	65561.90419
129.995	65506.97772
130.208	65607.75518
130.421	65628.41176
130.634	65621.52459
130.848	65543.58395
131.061	65506.97772
131.274	65548.16293
131.487	65646.78557
131.7	65619.22924
131.913	65545.87335
132.126	65591.69911
132.339	65495.54759
132.552	65406.54321
132.765	65513.83792
132.978	65591.69911
133.191	65614.63907
133.404	65550.45269
133.617	65610.04962
133.83	65561.90419
134.043	65639.89402
134.255	65665.17111
134.468	65564.19503
134.681	65660.57362
134.894	65701.97758
135.107	65630.70785
135.319	65552.74263
135.532	65580.23592
135.745	65545.87335
135.958	65598.5792
136.17	65672.06872
136.383	65575.65191
136.596	65623.82013
136.808	65596.28565
137.021	65534.42812
137.233	65626.11586
137.446	65568.77724
137.659	65607.75518
137.871	65459.0008
138.084	65598.5792
138.296	65559.61353
138.509	65593.99229
138.721	65628.41176
138.934	65575.65191
139.146	65561.90419
139.358	65621.52459
139.571	65500.11911
139.783	65504.69134
139.996	65580.23592
140.208	65525.27514
140.42	65532.1396
140.632	65559.61353
140.845	65612.34425
141.057	65672.06872
141.269	65619.22924
141.481	65593.99229
141.694	65639.89402
141.906	65573.36017
142.118	65690.47047
142.33	65566.48604
142.542	65646.78557
142.754	65555.03275
142.967	65678.96799
143.179	65633.00412
143.391	65520.69972
143.603	65612.34425
143.815	65509.26428
144.027	65589.40611
144.239	65481.83727
144.451	65580.23592
144.663	65591.69911
144.875	65516.12501
145.086	65484.12188
145.298	65536.71681
145.51	65614.63907
145.722	65518.41227
145.934	65607.75518
146.146	65612.34425
146.358	65596.28565
146.569	65646.78557
146.781	65561.90419
146.993	65644.48821
147.205	65497.83326
147.416	65598.5792
147.628	65589.40611
147.84	65548.16293
148.051	65596.28565
148.263	65561.90419
148.475	65635.30057
148.686	65600.87292
148.898	65525.27514
149.109	65509.26428
149.321	65637.5972
149.532	65516.12501
149.744	65573.36017
149.955	65550.45269
150.167	65605.46091
150.378	65591.69911
150.59	65621.52459
150.801	65660.57362
151.013	65646.78557
151.224	65509.26428
151.435	65596.28565
151.647	65509.26428
151.858	65564.19503
152.069	65596.28565
152.281	65598.5792
152.492	65568.77724
152.703	65603.16682
152.914	65468.13328
153.126	65564.19503
153.337	65568.77724
153.548	65665.17111
153.759	65559.61353
153.97	65644.48821
154.181	65628.41176
154.392	65539.00567
154.604	65655.97687
154.815	65619.22924
155.026	65552.74263
155.237	65596.28565
155.448	65488.69164
155.659	65571.06862
155.87	65577.94383
156.081	65557.32305
156.292	65626.11586
156.502	65658.27516
156.713	65555.03275
156.924	65532.1396
157.135	65575.65191
157.346	65591.69911
157.557	65555.03275
157.768	65621.52459
157.978	65662.87228
158.189	65566.48604
158.4	65628.41176
158.611	65566.48604
158.821	65516.12501
159.032	65605.46091
159.243	65536.71681
159.453	65584.82066
159.664	65584.82066
159.875	65545.87335
160.085	65621.52459
160.296	65545.87335
160.507	65605.46091
160.717	65630.70785
160.928	65543.58395
161.138	65748.05258
161.349	65603.16682
161.559	65669.76933
161.77	65600.87292
161.98	65623.82013
162.19	65550.45269
162.401	65605.46091
162.611	65539.00567
162.822	65612.34425
163.032	65605.46091
163.242	65619.22924
163.453	65539.00567
163.663	65642.19102
163.873	65566.48604
164.084	65628.41176
164.294	65639.89402
164.504	65589.40611
164.714	65571.06862
164.924	65573.36017
165.135	65623.82013
165.345	65543.58395
165.555	65582.5282
165.765	65529.85127
165.975	65539.00567
166.185	65587.11329
166.395	65614.63907
166.605	65655.97687
166.815	65644.48821
167.025	65603.16682
167.235	65504.69134
167.445	65701.97758
167.655	65566.48604
167.865	65596.28565
168.075	65580.23592
168.285	65596.28565
168.495	65577.94383
168.705	65513.83792
168.915	65488.69164
169.124	65552.74263
169.334	65555.03275
169.544	65559.61353
169.754	65596.28565
169.964	65550.45269
170.173	65525.27514
170.383	65571.06862
170.593	65577.94383
170.802	65534.42812
171.012	65637.5972
171.222	65600.87292
171.431	65642.19102
171.641	65607.75518
171.851	65662.87228
172.06	65621.52459
172.27	65623.82013
172.479	65557.32305
172.689	65619.22924
172.898	65566.48604
173.108	65610.04962
173.317	65543.58395
173.527	65649.08312
173.736	65653.67877
173.945	65580.23592
174.155	65541.29472
174.364	65543.58395
174.574	65580.23592
174.783	65591.69911
174.992	65529.85127
175.202	65589.40611
175.411	65532.1396
175.62	65619.22924
175.829	65633.00412
176.039	65568.77724
176.248	65539.00567
176.457	65591.69911
176.666	65506.97772
176.875	65623.82013
177.084	65552.74263
177.294	65630.70785
177.503	65644.48821
177.712	65502.40514
177.921	65626.11586
178.13	65593.99229
178.339	65681.26812
178.548	65614.63907
178.757	65582.5282
178.966	65543.58395
179.175	65557.32305
179.384	65600.87292
179.593	65577.94383
179.802	65655.97687
180.011	65582.5282
180.219	65603.16682
180.428	65573.36017
180.637	65573.36017
180.846	65543.58395
181.055	65575.65191
181.263	65600.87292
181.472	65497.83326
181.681	65630.70785
181.89	65566.48604
182.098	65500.11911
182.307	65607.75518
182.516	65568.77724
182.724	65584.82066
182.933	65548.16293
183.142	65672.06872
183.35	65568.77724
183.559	65575.65191
183.767	65591.69911
183.976	65621.52459
184.184	65635.30057
184.393	65561.90419
184.601	65621.52459
184.81	65502.40514
185.018	65626.11586
185.227	65564.19503
185.435	65644.48821
185.644	65548.16293
185.852	65690.47047
186.06	65545.87335
186.269	65545.87335
186.477	65541.29472
186.685	65589.40611
186.894	65500.11911
187.102	65584.82066
187.31	65516.12501
187.518	65589.40611
187.727	65674.3683
187.935	65651.38086
188.143	65591.69911
188.351	65559.61353
188.559	65651.38086
188.768	65513.83792
188.976	65534.42812
189.184	65550.45269
189.392	65548.16293
189.6	65557.32305
189.808	65477.26857
190.016	65619.22924
190.224	65607.75518
190.432	65577.94383
190.64	65582.5282
190.848	65573.36017
191.056	65525.27514
191.264	65564.19503
191.472	65589.40611
191.679	65605.46091
191.887	65598.5792
192.095	65681.26812
192.303	65561.90419
192.511	65612.34425
192.719	65688.16961
192.926	65532.1396
193.134	65688.16961
193.342	65616.93406
193.55	65596.28565
193.757	65589.40611
193.965	65566.48604
194.173	65550.45269
194.38	65655.97687
194.588	65630.70785
194.796	65610.04962
195.003	65534.42812
195.211	65630.70785
195.418	65612.34425
195.626	65678.96799
195.833	65573.36017
196.041	65529.85127
196.248	65589.40611
196.456	65532.1396
196.663	65488.69164
196.871	65619.22924
197.078	65571.06862
197.285	65596.28565
197.493	65571.06862
197.7	65452.15328
197.908	65564.19503
198.115	65605.46091
198.322	65575.65191
198.529	65646.78557
198.737	65665.17111
198.944	65571.06862
199.151	65662.87228
199.358	65628.41176
199.566	65706.58173
199.773	65497.83326
199.98	65593.99229
200.187	65623.82013
200.394	65587.11329
200.601	65465.8499
200.809	65676.66805
201.016	65564.19503
201.223	65557.32305
201.43	65672.06872
201.637	65614.63907
201.844	65619.22924
202.051	65692.77152
202.258	65568.77724
202.465	65610.04962
202.672	65681.26812
202.878	65587.11329
203.085	65614.63907
203.292	65568.77724
203.499	65539.00567
203.706	65587.11329
203.913	65584.82066
204.12	65646.78557
204.326	65628.41176
204.533	65639.89402
204.74	65529.85127
204.947	65577.94383
205.153	65589.40611
205.36	65573.36017
205.567	65678.96799
205.773	65672.06872
205.98	65550.45269
206.187	65593.99229
206.393	65584.82066
206.6	65607.75518
206.806	65649.08312
207.013	65522.98734
207.22	65529.85127
207.426	65639.89402
207.633	65580.23592
207.839	65513.83792
208.046	65545.87335
208.252	65548.16293
208.458	65543.58395
208.665	65571.06862
208.871	65610.04962
209.078	65502.40514
209.284	65593.99229
209.49	65605.46091
209.697	65607.75518
209.903	65646.78557
210.109	65612.34425
210.316	65545.87335
210.522	65626.11586
210.728	65564.19503
210.934	65367.82903
211.14	65607.75518
211.347	65667.47013
211.553	65552.74263
211.759	65575.65191
211.965	65529.85127
212.171	65552.74263
212.377	65518.41227
212.583	65580.23592
212.789	65616.93406
212.996	65566.48604
213.202	65532.1396
213.408	65573.36017
213.614	65580.23592
213.82	65628.41176
214.025	65612.34425
214.231	65658.27516
214.437	65616.93406
214.643	65513.83792
214.849	65577.94383
215.055	65584.82066
215.261	65642.19102
215.467	65575.65191
215.672	65655.97687
215.878	65516.12501
216.084	65635.30057
216.29	65575.65191
216.496	65500.11911
216.701	65543.58395
216.907	65637.5972
217.113	65577.94383
217.318	65509.26428
217.524	65621.52459
217.73	65633.00412
217.935	65600.87292
218.141	65548.16293
218.346	65566.48604
218.552	65598.5792
218.758	65566.48604
218.963	65555.03275
219.169	65564.19503
219.374	65575.65191
219.58	65575.65191
219.785	65596.28565
219.991	65522.98734
220.196	65676.66805
220.401	65610.04962
220.607	65580.23592
220.812	65495.54759
221.017	65584.82066
221.223	65532.1396
221.428	65506.97772
221.633	65527.56312
221.839	65575.65191
222.044	65635.30057
222.249	65566.48604
222.454	65559.61353
222.66	65561.90419
222.865	65607.75518
223.07	65461.28366
223.275	65582.5282
223.48	65550.45269
223.686	65635.30057
223.891	65665.17111
224.096	65658.27516
224.301	65474.98448
224.506	65630.70785
224.711	65536.71681
224.916	65616.93406
225.121	65610.04962
225.326	65607.75518
225.531	65635.30057
225.736	65614.63907
225.941	65644.48821
226.146	65593.99229
226.351	65564.19503
226.555	65561.90419
226.76	65557.32305
226.965	65660.57362
227.17	65603.16682
227.375	65626.11586
227.58	65610.04962
227.784	65541.29472
227.989	65699.67579
228.194	65621.52459
228.399	65550.45269
228.603	65642.19102
228.808	65616.93406
229.013	65527.56312
229.217	65580.23592
229.422	65633.00412
229.627	65593.99229
229.831	65614.63907
230.036	65545.87335
230.24	65573.36017
230.445	65550.45269
230.649	65573.36017
230.854	65564.19503
231.058	65603.16682
231.263	65591.69911
231.467	65559.61353
231.672	65598.5792
231.876	65580.23592
232.081	65529.85127
232.285	65552.74263
232.489	65550.45269
232.694	65619.22924
232.898	65529.85127
233.102	65486.40667
233.307	65573.36017
233.511	65596.28565
233.715	65548.16293
233.919	65525.27514
234.124	65639.89402
234.328	65678.96799
234.532	65575.65191
234.736	65536.71681
234.94	65630.70785
235.145	65571.06862
235.349	65559.61353
235.553	65465.8499
235.757	65474.98448
235.961	65633.00412
236.165	65626.11586
236.369	65541.29472
236.573	65543.58395
236.777	65639.89402
236.981	65566.48604
237.185	65502.40514
237.389	65600.87292
237.593	65580.23592
237.797	65550.45269
238.001	65545.87335
238.205	65561.90419
238.409	65616.93406
238.612	65621.52459
238.816	65459.0008
239.02	65584.82066
239.224	65598.5792
239.428	65548.16293
239.631	65571.06862
239.835	65555.03275
240.039	65584.82066
240.243	65534.42812
240.446	65509.26428
240.65	65635.30057
240.854	65734.22223
241.057	65559.61353
241.261	65635.30057
241.464	65655.97687
241.668	65532.1396
241.872	65621.52459
242.075	65582.5282
242.279	65571.06862
242.482	65619.22924
242.686	65610.04962
242.889	65518.41227
243.093	65621.52459
243.296	65525.27514
243.499	65582.5282
243.703	65584.82066
243.906	65644.48821
244.11	65555.03275
244.313	65589.40611
244.516	65564.19503
244.72	65525.27514
244.923	65646.78557
245.126	65490.97678
245.33	65561.90419
245.533	65637.5972
245.736	65564.19503
245.939	65600.87292
246.142	65568.77724
246.346	65616.93406
246.549	65662.87228
246.752	65621.52459
246.955	65598.5792
247.158	65557.32305
247.361	65603.16682
247.564	65543.58395
247.767	65502.40514
247.971	65584.82066
248.174	65552.74263
248.377	65603.16682
248.58	65662.87228
248.783	65628.41176
248.985	65589.40611
249.188	65603.16682
249.391	65555.03275
249.594	65584.82066
249.797	65633.00412
250	65504.69134
250.203	65600.87292
250.406	65607.75518
250.609	65635.30057
250.811	65612.34425
251.014	65612.34425
251.217	65644.48821
251.42	65628.41176
251.622	65461.28366
251.825	65525.27514
252.028	65612.34425
252.231	65616.93406
252.433	65630.70785
252.636	65522.98734
252.838	65550.45269
253.041	65587.11329
253.244	65536.71681
253.446	65486.40667
253.649	65573.36017
253.851	65529.85127
254.054	65607.75518
254.256	65520.69972
254.459	65612.34425
254.661	65555.03275
254.864	65633.00412
255.066	65429.33955
255.269	65591.69911
255.471	65557.32305
255.673	65541.29472
255.876	65612.34425
256.078	65557.32305
256.281	65568.77724
256.483	65584.82066
256.685	65639.89402
256.887	65575.65191
257.09	65566.48604
257.292	65630.70785
257.494	65541.29472
257.696	65600.87292
257.899	65630.70785
258.101	65488.69164
258.303	65561.90419
258.505	65660.57362
258.707	65593.99229
258.909	65621.52459
259.111	65681.26812
259.314	65561.90419
259.516	65612.34425
259.718	65525.27514
259.92	65571.06862
260.122	65598.5792
260.324	65612.34425
260.526	65504.69134
260.728	65568.77724
260.93	65550.45269
261.131	65667.47013
261.333	65626.11586
261.535	65589.40611
261.737	65616.93406
261.939	65543.58395
262.141	65580.23592
262.343	65536.71681
262.544	65555.03275
262.746	65555.03275
262.948	65637.5972
263.15	65587.11329
263.352	65516.12501
263.553	65584.82066
263.755	65637.5972
263.957	65511.55101
264.158	65548.16293
264.36	65571.06862
264.562	65534.42812
264.763	65621.52459
264.965	65552.74263
265.166	65605.46091
265.368	65509.26428
265.569	65614.63907
265.771	65610.04962
265.972	65545.87335
266.174	65614.63907
266.375	65600.87292
266.577	65587.11329
266.778	65555.03275
266.98	65584.82066
267.181	65635.30057
267.383	65655.97687
267.584	65506.97772
267.785	65591.69911
267.987	65612.34425
268.188	65660.57362
268.389	65545.87335
268.591	65655.97687
268.792	65653.67877
268.993	65557.32305
269.194	65612.34425
269.396	65520.69972
269.597	65573.36017
269.798	65623.82013
269.999	65571.06862
270.2	65653.67877
270.401	65516.12501
270.603	65614.63907
270.804	65630.70785
271.005	65633.00412
271.206	65584.82066
271.407	65557.32305
271.608	65511.55101
271.809	65589.40611
272.01	65575.65191
272.211	65603.16682
272.412	65541.29472
272.613	65534.42812
272.814	65637.5972
273.015	65610.04962
273.216	65630.70785
273.416	65605.46091
273.617	65529.85127
273.818	65555.03275
274.019	65598.5792
274.22	65539.00567
274.421	65568.77724
274.621	65605.46091
274.822	65571.06862
275.023	65575.65191
275.224	65582.5282
275.424	65665.17111
275.625	65697.37418
275.826	65591.69911
276.026	65635.30057
276.227	65598.5792
276.428	65550.45269
276.628	65543.58395
276.829	65545.87335
277.029	65598.5792
277.23	65575.65191
277.43	65552.74263
277.631	65509.26428
277.831	65667.47013
278.032	65644.48821
278.232	65598.5792
278.433	65614.63907
278.633	65506.97772
278.834	65616.93406
279.034	65545.87335
279.234	65516.12501
279.435	65587.11329
279.635	65566.48604
279.835	65593.99229
280.036	65504.69134
280.236	65678.96799
280.436	65614.63907
280.637	65587.11329
280.837	65520.69972
281.037	65591.69911
281.237	65591.69911
281.438	65605.46091
281.638	65614.63907
281.838	65610.04962
282.038	65610.04962
282.238	65587.11329
282.438	65596.28565
282.638	65593.99229
282.838	65612.34425
283.038	65566.48604
283.239	65607.75518
283.439	65589.40611
283.639	65493.2621
283.839	65623.82013
284.039	65564.19503
284.238	65589.40611
284.438	65545.87335
284.638	65639.89402
284.838	65616.93406
285.038	65619.22924
285.238	65642.19102
285.438	65582.5282
285.638	65580.23592
285.838	65584.82066
286.037	65550.45269
286.237	65623.82013
286.437	65630.70785
286.637	65607.75518
286.836	65605.46091
287.036	65655.97687
287.236	65552.74263
287.436	65639.89402
287.635	65575.65191
287.835	65584.82066
288.034	65589.40611
288.234	65495.54759
288.434	65561.90419
288.633	65598.5792
288.833	65633.00412
289.032	65688.16961
289.232	65575.65191
289.431	65575.65191
289.631	65612.34425
289.83	65506.97772
290.03	65635.30057
290.229	65623.82013
290.429	65695.07276
290.628	65525.27514
290.828	65658.27516
291.027	65681.26812
291.226	65607.75518
291.426	65568.77724
291.625	65452.15328
291.824	65603.16682
292.024	65603.16682
292.223	65635.30057
292.422	65593.99229
292.621	65612.34425
292.821	65559.61353
293.02	65598.5792
293.219	65527.56312
293.418	65633.00412
293.617	65539.00567
293.817	65626.11586
294.016	65497.83326
294.215	65529.85127
294.414	65672.06872
294.613	65607.75518
294.812	65593.99229
295.011	65621.52459
295.21	65571.06862
295.409	65660.57362
295.608	65706.58173
295.807	65626.11586
296.006	65561.90419
296.205	65596.28565
296.404	65461.28366
296.603	65614.63907
296.802	65500.11911
297.001	65623.82013
297.2	65621.52459
297.398	65639.89402
297.597	65527.56312
297.796	65665.17111
297.995	65649.08312
298.194	65545.87335
298.392	65610.04962
298.591	65603.16682
298.79	65646.78557
298.988	65614.63907
299.187	65610.04962
299.386	65580.23592
299.585	65598.5792
299.783	65582.5282
299.982	65518.41227
300.18	65616.93406
300.379	65605.46091
300.578	65607.75518
300.776	65665.17111
300.975	65571.06862
301.173	65513.83792
301.372	65598.5792
301.57	65616.93406
301.769	65621.52459
301.967	65550.45269
302.166	65598.5792
302.364	65642.19102
302.562	65593.99229
302.761	65548.16293
302.959	65603.16682
303.157	65557.32305
303.356	65630.70785
303.554	65539.00567
303.752	65598.5792
303.951	65564.19503
304.149	65477.26857
304.347	65571.06862
304.546	65541.29472
304.744	65577.94383
304.942	65561.90419
305.14	65630.70785
305.338	65655.97687
305.536	65607.75518
305.735	65610.04962
305.933	65616.93406
306.131	65626.11586
306.329	65539.00567
306.527	65655.97687
306.725	65603.16682
306.923	65550.45269
307.121	65493.2621
307.319	65628.41176
307.517	65630.70785
307.715	65580.23592
307.913	65470.41684
308.111	65557.32305
308.309	65573.36017
308.507	65605.46091
308.705	65593.99229
308.903	65649.08312
309.1	65529.85127
309.298	65534.42812
309.496	65575.65191
309.694	65612.34425
309.892	65637.5972
310.089	65644.48821
310.287	65593.99229
310.485	65623.82013
310.683	65580.23592
310.88	65598.5792
311.078	65605.46091
311.276	65541.29472
311.473	65591.69911
311.671	65582.5282
311.869	65539.00567
312.066	65589.40611
312.264	65587.11329
312.461	65509.26428
312.659	65529.85127
312.856	65541.29472
313.054	65619.22924
313.251	65614.63907
313.449	65527.56312
313.646	65596.28565
313.844	65639.89402
314.041	65596.28565
314.239	65525.27514
314.436	65516.12501
314.634	65484.12188
314.831	65541.29472
315.028	65662.87228
315.226	65596.28565
315.423	65525.27514
315.62	65630.70785
315.817	65577.94383
316.015	65470.41684
316.212	65626.11586
316.409	65545.87335
316.606	65561.90419
316.804	65607.75518
317.001	65642.19102
317.198	65543.58395
317.395	65543.58395
317.592	65543.58395
317.789	65593.99229
317.987	65571.06862
318.184	65623.82013
318.381	65660.57362
318.578	65545.87335
318.775	65655.97687
318.972	65651.38086
319.169	65649.08312
319.366	65541.29472
319.563	65577.94383
319.76	65616.93406
319.957	65607.75518
320.154	65621.52459
320.351	65539.00567
320.547	65561.90419
320.744	65600.87292
320.941	65479.55283
321.138	65593.99229
321.335	65580.23592
321.532	65628.41176
321.728	65548.16293
321.925	65646.78557
322.122	65468.13328
322.319	65695.07276
322.515	65539.00567
322.712	65552.74263
322.909	65665.17111
323.105	65669.76933
323.302	65529.85127
323.499	65509.26428
323.695	65557.32305
323.892	65587.11329
324.089	65543.58395
324.285	65610.04962
324.482	65619.22924
324.678	65669.76933
324.875	65623.82013
325.071	65573.36017
325.268	65577.94383
325.464	65603.16682
325.661	65582.5282
325.857	65596.28565
326.054	65630.70785
326.25	65557.32305
326.446	65555.03275
326.643	65575.65191
326.839	65598.5792
327.035	65678.96799
327.232	65529.85127
327.428	65674.3683
327.624	65667.47013
327.821	65584.82066
328.017	65644.48821
328.213	65621.52459
328.409	65584.82066
328.606	65564.19503
328.802	65566.48604
328.998	65600.87292
329.194	65662.87228
329.39	65541.29472
329.586	65584.82066
329.783	65545.87335
329.979	65573.36017
330.175	65603.16682
330.371	65584.82066
330.567	65600.87292
330.763	65573.36017
330.959	65637.5972
331.155	65610.04962
331.351	65619.22924
331.547	65555.03275
331.743	65695.07276
331.939	65591.69911
332.135	65619.22924
332.33	65518.41227
332.526	65582.5282
332.722	65566.48604
332.918	65534.42812
333.114	65637.5972
333.31	65481.83727
333.506	65509.26428
333.701	65587.11329
333.897	65697.37418
334.093	65543.58395
334.289	65649.08312
334.484	65484.12188
334.68	65500.11911
334.876	65527.56312
335.071	65593.99229
335.267	65522.98734
335.463	65605.46091
335.658	65603.16682
335.854	65713.48934
336.049	65589.40611
336.245	65619.22924
336.441	65614.63907
336.636	65566.48604
336.832	65548.16293
337.027	65465.8499
337.223	65653.67877
337.418	65511.55101
337.613	65644.48821
337.809	65561.90419
338.004	65637.5972
338.2	65580.23592
338.395	65630.70785
338.591	65536.71681
338.786	65644.48821
338.981	65639.89402
339.177	65649.08312
339.372	65575.65191
339.567	65516.12501
339.762	65548.16293
339.958	65715.79224
340.153	65674.3683
340.348	65046.34059
340.543	65596.28565
340.739	65639.89402
340.934	65610.04962
341.129	65557.32305
341.324	65557.32305
341.519	65665.17111
341.714	65729.61361
341.909	65644.48821
342.104	65584.82066
342.299	65593.99229
342.495	65616.93406
342.69	65635.30057
342.885	65621.52459
343.08	65335.98395
343.275	65502.40514
343.469	65605.46091
343.664	65550.45269
343.859	65593.99229
344.054	65655.97687
344.249	65637.5972
344.444	65582.5282
344.639	65616.93406
344.834	65642.19102
345.029	65589.40611
345.223	65564.19503
345.418	65644.48821
345.613	65575.65191
345.808	65593.99229
346.003	65598.5792
346.197	65593.99229
346.392	65577.94383
346.587	65481.83727
346.781	65607.75518
346.976	65566.48604
347.171	65511.55101
347.365	65616.93406
347.56	65614.63907
347.755	65536.71681
347.949	65612.34425
348.144	65642.19102
348.338	65580.23592
348.533	65575.65191
348.727	65626.11586
348.922	65543.58395
349.116	65658.27516
349.311	65587.11329
349.505	65658.27516
349.7	65642.19102
349.894	65630.70785
350.089	65566.48604
350.283	65600.87292
350.477	65584.82066
350.672	65603.16682
350.866	65525.27514
351.06	65580.23592
351.255	65584.82066
351.449	65589.40611
351.643	65589.40611
351.837	65545.87335
352.032	65685.86893
352.226	65635.30057
352.42	65639.89402
352.614	65522.98734
352.809	65626.11586
353.003	65582.5282
353.197	65568.77724
353.391	65605.46091
353.585	65571.06862
353.779	65667.47013
353.973	65522.98734
354.167	65559.61353
354.361	65646.78557
354.555	65534.42812
354.749	65603.16682
354.943	65626.11586
355.137	65561.90419
355.331	65610.04962
355.525	65623.82013
355.719	65561.90419
355.913	65600.87292
356.107	65573.36017
356.301	65603.16682
356.495	65598.5792
356.689	65589.40611
356.883	65561.90419
357.076	65658.27516
357.27	65527.56312
357.464	65623.82013
357.658	65525.27514
357.852	65596.28565
358.045	65564.19503
358.239	65637.5972
358.433	65612.34425
358.626	65623.82013
358.82	65596.28565
359.014	65575.65191
359.207	65584.82066
359.401	65676.66805
359.595	65564.19503
359.788	65616.93406
359.982	65589.40611
360.175	65555.03275
360.369	65612.34425
360.563	65584.82066
360.756	65596.28565
360.95	65573.36017
361.143	65683.56843
361.336	65734.22223
361.53	65639.89402
361.723	65626.11586
361.917	65568.77724
362.11	65628.41176
362.304	65603.16682
362.497	65593.99229
362.69	65468.13328
362.884	65577.94383
363.077	65616.93406
363.27	65610.04962
363.464	65584.82066
363.657	65626.11586
363.85	65543.58395
364.043	65612.34425
364.237	65584.82066
364.43	65557.32305
364.623	65552.74263
364.816	65642.19102
365.009	65532.1396
365.202	65616.93406
365.396	65516.12501
365.589	65577.94383
365.782	65577.94383
365.975	65658.27516
366.168	65548.16293
366.361	65511.55101
366.554	65593.99229
366.747	65626.11586
366.94	65559.61353
367.133	65598.5792
367.326	65610.04962
367.519	65612.34425
367.712	65720.39862
367.905	65607.75518
368.098	65633.00412
368.291	65490.97678
368.484	65593.99229
368.676	65564.19503
368.869	65665.17111
369.062	65605.46091
369.255	65589.40611
369.448	65552.74263
369.64	65577.94383
369.833	65616.93406
370.026	65543.58395
370.219	65660.57362
370.411	65488.69164
370.604	65674.3683
370.797	65577.94383
370.989	65550.45269
371.182	65667.47013
371.375	65539.00567
371.567	65568.77724
371.76	65600.87292
371.952	65669.76933
372.145	65573.36017
372.338	65566.48604
372.53	65575.65191
372.723	65653.67877
372.915	65600.87292
373.108	65628.41176
373.3	65561.90419
373.493	65555.03275
373.685	65552.74263
373.877	65646.78557
374.07	65536.71681
374.262	65527.56312
374.455	65637.5972
374.647	65695.07276
374.839	65529.85127
375.032	65584.82066
375.224	65584.82066
375.416	65644.48821
375.609	65147.86327
375.801	65591.69911
375.993	65637.5972
376.185	65649.08312
376.378	65600.87292
376.57	65580.23592
376.762	65575.65191
376.954	65561.90419
377.146	65548.16293
377.338	65639.89402
377.53	65630.70785
377.723	65545.87335
377.915	65635.30057
378.107	65593.99229
378.299	65626.11586
378.491	65621.52459
378.683	65575.65191
378.875	65616.93406
379.067	65527.56312
379.259	65555.03275
379.451	65603.16682
379.643	65539.00567
379.835	65568.77724
380.027	65522.98734
380.219	65635.30057
380.41	65589.40611
380.602	65582.5282
380.794	65681.26812
380.986	65626.11586
381.178	65596.28565
381.37	65603.16682
381.561	65587.11329
381.753	65504.69134
381.945	65518.41227
382.137	65584.82066
382.328	65614.63907
382.52	65626.11586
382.712	65619.22924
382.903	65522.98734
383.095	65605.46091
383.287	65651.38086
383.478	65564.19503
383.67	65623.82013
383.862	65582.5282
384.053	65575.65191
384.245	65621.52459
384.436	65552.74263
384.628	65580.23592
384.819	65607.75518
385.011	65548.16293
385.202	65600.87292
385.394	65621.52459
385.585	65495.54759
385.777	65616.93406
385.968	65658.27516
386.159	65593.99229
386.351	65587.11329
386.542	65559.61353
386.734	65511.55101
386.925	65612.34425
387.116	65571.06862
387.308	65575.65191
387.499	65637.5972
387.69	65552.74263
387.881	65511.55101
388.073	65587.11329
388.264	65584.82066
388.455	65672.06872
388.646	65539.00567
388.837	65557.32305
389.029	65580.23592
389.22	65605.46091
389.411	65626.11586
389.602	65582.5282
389.793	65616.93406
389.984	65596.28565
390.175	65566.48604
390.366	65552.74263
390.557	65649.08312
390.748	65589.40611
390.939	65665.17111
391.13	65612.34425
391.321	65575.65191
391.512	65607.75518
391.703	65593.99229
391.894	65621.52459
392.085	65644.48821
392.276	65635.30057
392.467	65649.08312
392.658	65630.70785
392.849	65584.82066
393.039	65614.63907
393.23	65598.5792
393.421	65573.36017
393.612	65589.40611
393.803	65596.28565
393.993	65495.54759
394.184	65559.61353
394.375	65646.78557
394.566	65584.82066
394.756	65573.36017
394.947	65536.71681
395.138	65619.22924
395.328	65522.98734
395.519	65543.58395
395.709	65649.08312
395.9	65490.97678
396.091	65619.22924
396.281	65621.52459
396.472	65614.63907
396.662	65639.89402
396.853	65630.70785
397.043	65612.34425
397.234	65616.93406
397.424	65571.06862
397.615	65571.06862
397.805	65580.23592
397.996	65669.76933
398.186	65534.42812
398.376	65516.12501
398.567	65628.41176
398.757	65598.5792
398.947	65729.61361
399.138	65545.87335
399.328	65534.42812
399.518	65651.38086
399.709	65681.26812
399.899	65593.99229
400.089	65630.70785
400.279	65584.82066
400.47	65591.69911
400.66	65589.40611
400.85	65518.41227
401.04	65555.03275
401.23	65529.85127
401.421	65568.77724
401.611	65612.34425
401.801	65552.74263
401.991	65584.82066
402.181	65603.16682
402.371	65571.06862
402.561	65522.98734
402.751	65605.46091
402.941	65557.32305
403.131	65516.12501
403.321	65626.11586
403.511	65575.65191
403.701	65545.87335
403.891	65584.82066
404.081	65582.5282
404.271	65633.00412
404.461	65513.83792
404.651	65642.19102
404.84	65564.19503
405.03	65555.03275
405.22	65630.70785
405.41	65619.22924
405.6	65532.1396
405.789	65536.71681
405.979	65520.69972
406.169	65660.57362
406.359	65593.99229
406.548	65644.48821
406.738	65644.48821
406.928	65518.41227
407.118	65552.74263
407.307	65539.00567
407.497	65587.11329
407.686	65529.85127
407.876	65637.5972
408.066	65616.93406
408.255	65626.11586
408.445	65619.22924
408.634	65545.87335
408.824	65566.48604
409.013	65610.04962
409.203	65532.1396
409.392	65566.48604
409.582	65571.06862
409.771	65665.17111
409.961	65623.82013
410.15	65552.74263
410.34	65564.19503
410.529	65639.89402
410.718	65580.23592
410.908	65452.15328
411.097	65639.89402
411.286	65623.82013
411.476	65653.67877
411.665	65614.63907
411.854	65605.46091
412.044	65649.08312
412.233	65564.19503
412.422	65564.19503
412.611	65582.5282
412.8	65541.29472
412.99	65628.41176
413.179	65548.16293
413.368	65621.52459
413.557	65646.78557
413.746	65598.5792
413.935	65621.52459
414.124	65667.47013
414.313	65532.1396
414.503	65566.48604
414.692	65623.82013
414.881	65511.55101
415.07	65527.56312
415.259	65600.87292
415.448	65525.27514
415.637	65582.5282
415.826	65564.19503
416.015	65655.97687
416.203	65600.87292
416.392	65550.45269
416.581	65612.34425
416.77	65571.06862
416.959	65559.61353
417.148	65619.22924
417.337	65630.70785
417.525	65575.65191
417.714	65557.32305
417.903	65635.30057
418.092	65630.70785
418.281	65564.19503
418.469	65573.36017
418.658	65577.94383
418.847	65607.75518
419.035	65642.19102
419.224	65655.97687
419.413	65633.00412
419.601	65575.65191
419.79	65665.17111
419.979	65600.87292
420.167	65635.30057
420.356	65598.5792
420.544	65561.90419
420.733	65630.70785
420.921	65610.04962
421.11	65561.90419
421.299	65548.16293
421.487	65591.69911
421.675	65587.11329
421.864	65596.28565
422.052	65614.63907
422.241	65495.54759
422.429	65607.75518
422.618	65598.5792
422.806	65575.65191
422.994	65607.75518
423.183	65552.74263
423.371	65607.75518
423.559	65566.48604
423.748	65539.00567
423.936	65612.34425
424.124	65697.37418
424.312	65633.00412
424.501	65575.65191
424.689	65598.5792
424.877	65596.28565
425.065	65593.99229
425.254	65612.34425
425.442	65449.87112
425.63	65518.41227
425.818	65509.26428
426.006	65598.5792
426.194	65504.69134
426.382	65522.98734
426.57	65555.03275
426.758	65571.06862
426.946	65607.75518
427.134	65545.87335
427.323	65623.82013
427.51	65593.99229
427.698	65580.23592
427.886	65550.45269
428.074	65513.83792
428.262	65695.07276
428.45	65584.82066
428.638	65577.94383
428.826	65552.74263
429.014	65626.11586
429.202	65699.67579
429.39	65662.87228
429.577	65522.98734
429.765	65525.27514
429.953	65520.69972
430.141	65596.28565
430.329	65552.74263
430.516	65621.52459
430.704	65461.28366
430.892	65610.04962
431.079	65683.56843
431.267	65525.27514
431.455	65660.57362
431.643	65513.83792
431.83	65561.90419
432.018	65550.45269
432.205	65610.04962
432.393	65658.27516
432.581	65593.99229
432.768	65525.27514
432.956	65529.85127
433.143	65571.06862
433.331	65543.58395
433.518	65610.04962
433.706	65591.69911
433.893	65484.12188
434.081	65616.93406
434.268	65500.11911
434.456	65633.00412
434.643	65621.52459
434.83	65534.42812
435.018	65534.42812
435.205	65616.93406
435.392	65616.93406
435.58	65690.47047
435.767	65532.1396
435.954	65587.11329
436.142	65525.27514
436.329	65626.11586
436.516	65607.75518
436.703	65550.45269
436.891	65511.55101
437.078	65536.71681
437.265	65532.1396
437.452	65541.29472
437.639	65575.65191
437.827	65557.32305
438.014	65539.00567
438.201	65591.69911
438.388	65534.42812
438.575	65584.82066
438.762	65587.11329
438.949	65600.87292
439.136	65545.87335
439.323	65493.2621
439.51	65593.99229
439.697	65516.12501
439.884	65520.69972
440.071	65545.87335
440.258	65518.41227
440.445	65529.85127
440.632	65335.98395
440.819	65539.00567
441.006	65468.13328
441.193	65552.74263
441.38	65516.12501
441.566	65577.94383
441.753	65587.11329
441.94	65520.69972
442.127	65584.82066
442.314	65504.69134
442.5	65481.83727
442.687	65497.83326
442.874	65525.27514
443.061	65532.1396
443.247	65516.12501
443.434	65427.05914
443.621	65593.99229
443.807	65539.00567
443.994	65415.65966
444.181	65552.74263
444.367	65582.5282
444.554	65497.83326
444.74	65522.98734
444.927	65552.74263
445.114	65495.54759
445.3	65370.10496
445.487	65447.58914
445.673	65463.56669
445.86	65493.2621
446.046	65518.41227
446.233	65481.83727
446.419	65513.83792
446.605	65408.82206
446.792	65413.38029
446.978	65552.74263
447.165	65488.69164
447.351	65513.83792
447.537	65527.56312
447.724	65536.71681
447.91	65422.49883
448.096	65447.58914
448.283	65383.76414
448.469	65486.40667
448.655	65470.41684
448.841	65417.93921
449.028	65456.71812
449.214	65443.0257
449.4	65420.21893
449.586	65440.74424
449.773	65413.38029
449.959	65440.74424
450.145	65326.89148
450.331	65456.71812
450.517	65486.40667
450.703	65365.55327
450.889	65459.0008
451.075	65404.26452
451.261	65329.16434
451.447	65322.34626
451.633	65401.98601
451.819	65390.59605
452.005	65320.07391
452.191	65388.31858
452.377	65370.10496
452.563	65347.35336
452.749	65351.90231
452.935	65326.89148
453.121	65288.27867
453.307	65317.80172
453.493	65261.05181
453.679	65301.90116
453.865	65272.39341
454.05	65245.18058
454.236	65290.54866
454.422	65356.45195
454.608	65313.25786
454.794	65333.71058
454.979	65342.80508
455.165	65310.98618
455.351	65251.98154
455.537	65256.51634
455.722	65181.77674
455.908	65263.3198
456.094	65199.87895
456.279	65179.5147
456.465	65145.60367
456.65	65240.64744
456.836	65208.93399
457.022	65197.6156
457.207	65213.4625
457.393	65165.94589
457.578	65217.99167
457.764	65120.75878
457.949	65193.08939
458.135	65132.04949
458.32	65267.85627
458.506	65220.25651
458.691	65184.03894
458.877	65163.68499
459.062	65229.31749
459.248	65236.11496
459.433	65111.72911
459.618	65089.16619
459.804	65186.30131
459.989	65093.67749
460.174	65089.16619
460.36	65116.24362
460.545	65129.79102
460.73	65145.60367
460.915	65134.30811
461.101	65143.34423
461.286	65111.72911
461.471	65129.79102
461.656	65242.91393
461.842	65089.16619
462.027	65118.50112
462.212	65089.16619
462.397	65071.12736
462.582	65102.70202
462.767	65001.32269
462.952	65197.6156
463.138	65082.40043
463.323	65005.82165
463.508	65102.70202
463.693	65062.11177
463.878	65093.67749
464.063	65003.57209
464.248	65039.58389
464.433	65039.58389
464.618	65039.58389
464.803	65035.08021
464.988	65037.33197
465.173	64969.84742
465.357	65010.32124
465.542	65014.82146
465.727	64918.20396
465.912	64967.60035
466.097	65023.82377
466.282	65023.82377
466.467	64967.60035
466.651	64922.69146
466.836	64922.69146
467.021	65080.1455
467.206	64974.34202
467.391	65032.82861
467.575	64994.57541
467.76	64985.58123
467.945	64900.26007
468.129	64931.66831
468.314	64893.53362
468.499	65010.32124
468.683	64882.32593
468.868	64963.10668
469.053	64951.87522
469.237	64936.15766
469.422	64882.32593
469.606	64938.40256
469.791	65001.32269
469.975	64920.44763
470.16	64947.38371
470.344	64911.47385
470.529	64983.33308
470.713	64815.15911
470.898	64976.58955
471.082	64938.40256
471.267	64985.58123
471.451	64969.84742
471.636	65086.91077
471.82	64976.58955
472.004	64846.48677
472.189	64965.35344
472.373	65039.58389
472.557	65021.57296
472.742	65008.07137
472.926	65017.0718
473.11	65028.32588
473.295	64933.91291
473.479	64942.89283
473.663	64951.87522
473.847	65014.82146
474.031	65005.82165
474.216	65001.32269
474.4	65026.07475
474.584	65019.3223
474.768	64981.08508
474.952	64915.96044
475.136	64913.71707
475.32	65046.34059
475.505	64933.91291
475.689	64880.08485
475.873	64954.1212
476.057	64945.13819
476.241	64992.32663
476.425	64918.20396
476.609	64882.32593
476.793	64958.61363
476.977	65028.32588
477.161	64922.69146
477.345	64904.74512
477.529	65021.57296
477.713	64866.64154
477.896	65003.57209
478.08	64848.72558
478.264	64915.96044
478.448	64940.64762
478.632	64871.12203
478.816	65080.1455
478.999	64886.80855
479.183	64969.84742
479.367	64938.40256
479.551	64774.92365
479.735	64877.84392
479.918	64913.71707
480.102	64846.48677
480.286	64884.56717
480.469	64951.87522
480.653	64848.72558
480.837	64864.40151
481.02	64891.29178
481.204	64850.96455
481.388	64821.86971
481.571	64723.58128
481.755	64859.92192
481.938	64850.96455
482.122	64886.80855
482.305	64790.56506
482.489	64707.97071
482.673	64752.59134
482.856	64826.34419
483.04	64819.63269
483.223	64810.68612
483.406	64830.81927
483.59	64826.34419
483.773	64770.45601
483.957	64850.96455
484.14	64741.43069
484.323	64705.74121
484.507	64748.12664
484.69	64781.62622
484.874	64853.20367
485.057	64799.50627
485.24	64754.8239
485.423	64891.29178
485.607	64732.50482
485.79	64790.56506
485.973	64745.89451
486.156	64681.22627
486.34	64696.82466
486.523	64678.99851
486.706	64739.19901
486.889	64810.68612
487.072	64705.74121
487.256	64685.68223
487.439	64745.89451
487.622	64687.91043
487.805	64741.43069
487.988	64712.43015
488.171	64681.22627
488.354	64670.0889
488.537	64734.73607
488.72	64687.91043
488.903	64663.4082
489.086	64716.89016
489.269	64676.77089
489.452	64672.31609
489.635	64621.12707
489.818	64512.32172
490.001	64750.35891
490.184	64710.20036
490.367	64707.97071
490.55	64612.23233
490.732	64505.67105
490.915	64650.05069
491.098	64612.23233
491.281	64736.96746
491.464	64663.4082
491.647	64690.13877
491.829	64696.82466
492.012	64605.56277
492.195	64552.25196
492.378	64641.14854
492.56	64496.80541
492.743	64518.97364
492.926	64490.15764
493.108	64630.02408
493.291	64610.009
493.474	64472.43627
493.656	64487.94198
493.839	64432.59517
494.022	64499.02161
494.204	64428.1711
494.387	64454.72367
494.569	64592.22746
494.752	64461.36487
494.934	64485.72647
495.117	64472.43627
495.299	64510.10469
495.482	64441.44494
495.664	64395.00777
495.847	64476.86579
496.029	64516.75619
496.212	64264.85586
496.394	64487.94198
496.576	64441.44494
496.759	64534.49963
496.941	64357.45915
497.123	64203.24784
497.306	64510.10469
497.488	64423.74757
497.67	64492.37342
497.853	64485.72647
498.035	64359.66683
498.217	64293.49407
498.4	64364.08258
498.582	64514.53889
498.764	64439.23229
498.946	64368.49886
499.128	64381.75091
499.311	64410.48022
499.493	64503.45443
499.675	64370.7072
499.857	64333.18348
500.039	64295.69792
500.221	64333.18348
500.403	64313.33345
500.585	64212.04282
500.767	64273.66527
500.949	64313.33345
501.132	64337.59605
501.314	64370.7072
501.496	64229.63892
501.678	64443.65772
501.859	64300.10602
502.041	64291.29035
502.223	64291.29035
502.405	64324.35993
502.587	64227.43896
502.769	64251.64563
502.951	64249.44438
503.133	64278.07076
503.315	64333.18348
503.497	64306.71914
503.678	64297.9019
503.86	64386.16933
504.042	64181.26932
504.224	64212.04282
504.406	64271.46273
504.587	64326.56562
504.769	64280.2737
504.951	64256.04852
505.132	64364.08258
505.314	64297.9019
505.496	64260.45193
505.678	64326.56562
505.859	64308.92378
506.041	64260.45193
506.222	64275.86795
506.404	64271.46273
506.586	64284.67997
506.767	64220.83984
506.949	64328.77144
507.13	64278.07076
507.312	64286.8833
507.493	64146.13008
507.675	64262.65383
507.856	64260.45193
508.038	64350.83692
508.219	64328.77144
508.401	64326.56562
508.582	64231.83901
508.764	64269.26031
508.945	64236.23958
509.126	64324.35993
509.308	64306.71914
509.489	64291.29035
509.671	64348.62978
509.852	64256.04852
510.033	64348.62978
510.214	64322.15437
510.396	64361.87464
510.577	64428.1711
510.758	64245.04226
510.94	64256.04852
511.121	64291.29035
511.302	64293.49407
511.483	64328.77144
511.664	64264.85586
511.846	64377.33303
512.027	64295.69792
512.208	64359.66683
512.389	64346.42277
512.57	64262.65383
512.751	64300.10602
512.932	64282.47677
513.113	64192.25699
513.294	64315.53848
513.476	64302.31026
513.657	64335.3897
513.838	64410.48022
514.019	64271.46273
514.2	64350.83692
514.381	64295.69792
514.561	64275.86795
514.742	64372.91568
514.923	64304.51464
515.104	64286.8833
515.285	64330.97739
515.466	64361.87464
515.647	64399.4278
515.828	64253.84701
516.009	64297.9019
516.189	64372.91568
516.37	64408.26946
516.551	64381.75091
516.732	64381.75091
516.913	64346.42277
517.093	64375.12429
517.274	64381.75091
517.455	64223.03942
517.636	64295.69792
517.816	64286.8833
517.997	64311.12855
518.178	64317.74365
518.358	64417.11328
518.539	64344.21589
518.72	64326.56562
518.9	64315.53848
519.081	64328.77144
519.261	64278.07076
519.442	64194.4549
519.622	64311.12855
519.803	64315.53848
519.984	64264.85586
520.164	64342.00914
520.345	64322.15437
520.525	64308.92378
520.705	64364.08258
520.886	64260.45193
521.066	64474.65096
521.247	64330.97739
521.427	64335.3897
521.608	64176.87514
521.788	64361.87464
521.968	64163.69565
522.149	64379.5419
522.329	64302.31026
522.509	64410.48022
522.69	64361.87464
522.87	64390.58828
523.05	64417.11328
523.231	64397.21772
523.411	64357.45915
523.591	64304.51464
523.771	64386.16933
523.951	64300.10602
524.132	64282.47677
524.312	64333.18348
524.492	64361.87464
524.672	64306.71914
524.852	64282.47677
525.032	64344.21589
525.213	64311.12855
525.393	64242.8414
525.573	64419.32458
525.753	64271.46273
525.933	64297.9019
526.113	64304.51464
526.293	64408.26946
526.473	64377.33303
526.653	64231.83901
526.833	64368.49886
527.013	64425.95926
527.193	64342.00914
527.373	64357.45915
527.553	64330.97739
527.733	64300.10602
527.913	64388.37874
528.092	64527.8448
528.272	64313.33345
528.452	64370.7072
528.632	64450.29688
528.812	64355.25161
528.992	64304.51464
529.171	64337.59605
529.351	64432.59517
529.531	64425.95926
529.711	64322.15437
529.89	64423.74757
530.07	64315.53848
530.25	64229.63892
530.43	64234.03923
530.609	64357.45915
530.789	64339.80253
530.969	64328.77144
531.148	64397.21772
531.328	64434.80741
531.507	64388.37874
531.687	64302.31026
531.867	64428.1711
532.046	64286.8833
532.226	64392.79796
532.405	64330.97739
532.585	64353.0442
532.764	64375.12429
532.944	64229.63892
533.123	64357.45915
533.303	64408.26946
533.482	64231.83901
533.662	64383.96005
533.841	64326.56562
534.021	64291.29035
534.2	64379.5419
534.379	64423.74757
534.559	64361.87464
534.738	64322.15437
534.917	64463.57888
535.097	64353.0442
535.276	64348.62978
535.455	64306.71914
535.635	64441.44494
535.814	64386.16933
535.993	64317.74365
536.172	64450.29688
536.352	64412.69111
536.531	64432.59517
536.71	64339.80253
536.889	64359.66683
537.068	64399.4278
537.248	64419.32458
537.427	64282.47677
537.606	64353.0442
537.785	64357.45915
537.964	64372.91568
538.143	64437.01978
538.322	64388.37874
538.501	64355.25161
538.68	64410.48022
538.859	64306.71914
539.038	64445.87064
539.217	64445.87064
539.396	64514.53889
539.575	64370.7072
539.754	64353.0442
539.933	64317.74365
540.112	64538.93688
540.291	64377.33303
540.47	64379.5419
540.649	64381.75091
540.828	64538.93688
541.007	64348.62978
541.186	64456.93726
541.364	64357.45915
541.543	64439.23229
541.722	64395.00777
541.901	64432.59517
542.08	64282.47677
542.258	64319.94894
542.437	64463.57888
542.616	64328.77144
542.795	64483.51109
542.973	64439.23229
543.152	64448.08369
543.331	64425.95926
543.509	64472.43627
543.688	64353.0442
543.867	64450.29688
544.045	64463.57888
544.224	64313.33345
544.402	64054.04208
544.581	64417.11328
544.76	64514.53889
544.938	64408.26946
545.117	64377.33303
545.295	64425.95926
545.474	64423.74757
545.652	64499.02161
545.831	64450.29688
546.009	64319.94894
546.188	64423.74757
546.366	64437.01978
546.544	64414.90213
546.723	64410.48022
546.901	64403.84836
547.08	64346.42277
547.258	64456.93726
547.436	64454.72367
547.615	64503.45443
547.793	64430.38306
547.971	64412.69111
548.15	64428.1711
548.328	64375.12429
548.506	64313.33345
548.684	64286.8833
548.863	64448.08369
549.041	64479.08075
549.219	64536.71818
549.397	64399.4278
549.576	64450.29688
549.754	64408.26946
549.932	64434.80741
550.11	64476.86579
550.288	64512.32172
550.466	64598.89448
550.644	64375.12429
550.822	64472.43627
551.001	64512.32172
551.179	64565.57208
551.357	64501.23795
551.535	64443.65772
551.713	64503.45443
551.891	64507.8878
552.069	64552.25196
552.247	64512.32172
552.425	64547.81304
552.603	64547.81304
552.781	64525.6268
552.958	64556.69144
553.136	64534.49963
553.314	64650.05069
553.492	64605.56277
553.67	64632.24868
553.848	64645.59933
554.026	64743.66253
554.204	64725.81195
554.381	64665.63496
554.559	64728.04276
554.737	64801.74194
554.915	64734.73607
555.092	64692.36726
555.27	64765.98896
555.448	64728.04276
555.626	64779.39188
555.803	64866.64154
555.981	64694.59589
556.159	64824.10687
556.336	64833.05703
556.514	64895.77562
556.692	64850.96455
556.869	64824.10687
557.047	64819.63269
557.224	64850.96455
557.402	64866.64154
557.58	64790.56506
557.757	64904.74512
557.935	65003.57209
558.112	64909.23079
558.29	64898.01777
558.467	65003.57209
558.645	65005.82165
558.822	65019.3223
559	64992.32663
559.177	64967.60035
559.354	64942.89283
559.532	64949.62939
559.709	64981.08508
559.887	64942.89283
560.064	65044.0882
560.241	64920.44763
560.419	64940.64762
560.596	64920.44763
560.773	64913.71707
560.951	64895.77562
561.128	64779.39188
561.305	65008.07137
561.482	64949.62939
561.66	64898.01777
561.837	64893.53362
562.014	64942.89283
562.191	65017.0718
562.368	64963.10668
562.546	64895.77562
562.723	64996.82435
562.9	64965.35344
563.077	64891.29178
563.254	64987.82954
563.431	64956.36734
563.608	64868.88171
563.785	64985.58123
563.962	64924.93544
564.139	65014.82146
564.317	64898.01777
564.494	65030.57716
564.671	64833.05703
564.848	64929.42387
565.025	64981.08508
565.201	65008.07137
565.378	64938.40256
565.555	64936.15766
565.732	64972.09464
565.909	64981.08508
566.086	64963.10668
566.263	65012.57127
566.44	64967.60035
566.617	65008.07137
566.794	64929.42387
566.97	64992.32663
567.147	65062.11177
567.324	64965.35344
567.501	65026.07475
567.678	64963.10668
567.854	64985.58123
568.031	65095.93338
568.208	64965.35344
568.384	65030.57716
568.561	65005.82165
568.738	65030.57716
568.915	65008.07137
569.091	65082.40043
569.268	65041.83596
569.444	65091.42176
569.621	65062.11177
569.798	65089.16619
569.974	65032.82861
570.151	65028.32588
570.327	65044.0882
570.504	65017.0718
570.681	65111.72911
570.857	65080.1455
571.034	65089.16619
571.21	65039.58389
571.387	65186.30131
571.563	65159.16369
571.739	64996.82435
571.916	65208.93399
572.092	65134.30811
572.269	65082.40043
572.445	65095.93338
572.622	65143.34423
572.798	65082.40043
572.974	65136.5669
573.151	65193.08939
573.327	65134.30811
573.503	65032.82861
573.68	65195.35241
573.856	65188.56384
574.032	65193.08939
574.208	65073.38165
574.385	65098.18943
574.561	65211.19817
574.737	65184.03894
574.913	65080.1455
575.089	65184.03894
575.266	65188.56384
575.442	65199.87895
575.618	65039.58389
575.794	65161.42426
575.97	65170.46817
576.146	65100.44565
576.322	65165.94589
576.499	65057.60492
576.675	65075.63611
576.851	65077.89072
577.027	65001.32269
577.203	65134.30811
577.379	65174.99111
577.555	65129.79102
577.731	65084.65552
577.907	64759.28948
578.083	65039.58389
578.259	65111.72911
578.435	65086.91077
578.611	64967.60035
578.786	64983.33308
578.962	65035.08021
579.138	65147.86327
579.314	65039.58389
579.49	65111.72911
579.666	65014.82146
579.842	65091.42176
580.017	65091.42176
580.193	65077.89072
580.369	65026.07475
580.545	65050.84585
580.72	64956.36734
580.896	65086.91077
581.072	64976.58955
581.248	65023.82377
581.423	64951.87522
581.599	65055.35174
581.775	65014.82146
581.95	65017.0718
582.126	65044.0882
582.302	64947.38371
582.477	65010.32124
582.653	65071.12736
582.829	65055.35174
583.004	65145.60367
583.18	65041.83596
583.355	65080.1455
583.531	65010.32124
583.706	64987.82954
583.882	65080.1455
584.057	65163.68499
584.233	65026.07475
584.408	64927.17958
584.584	65046.34059
584.759	65109.4721
584.935	65109.4721
585.11	65095.93338
585.285	65129.79102
585.461	65202.14246
585.636	65102.70202
585.812	65120.75878
585.987	65188.56384
586.162	65174.99111
586.338	65116.24362
586.513	65211.19817
586.688	65272.39341
586.863	65150.12302
587.039	65206.66998
587.214	65181.77674
587.389	65177.25282
587.564	65217.99167
587.74	65174.99111
587.915	65342.80508
588.09	65288.27867
588.265	65224.78667
588.44	65301.90116
588.615	65286.00884
588.791	65274.66223
588.966	65329.16434
589.141	65347.35336
589.316	65267.85627
589.491	65281.4697
589.666	65251.98154
589.841	65215.72701
590.016	65326.89148
590.191	65242.91393
590.366	65374.65734
590.541	65392.8737
590.716	65342.80508
590.891	65320.07391
591.066	65415.65966
591.241	65390.59605
591.416	65408.82206
591.591	65397.42951
591.766	65397.42951
591.941	65511.55101
592.116	65525.27514
592.29	65406.54321
592.465	65454.43561
592.64	65568.77724
592.815	65502.40514
592.99	65552.74263
593.165	65511.55101
593.339	65534.42812
593.514	65504.69134
593.689	65427.05914
593.864	65509.26428
594.038	65536.71681
594.213	65429.33955
594.388	65511.55101
594.562	65488.69164
594.737	65427.05914
594.912	65506.97772
595.086	65564.19503
595.261	65516.12501
595.436	65445.30733
595.61	65465.8499
595.785	65459.0008
595.959	65454.43561
596.134	65495.54759
596.309	65493.2621
596.483	65500.11911
596.658	65488.69164
596.832	65516.12501
597.007	65390.59605
597.181	65548.16293
597.356	65463.56669
597.53	65552.74263
597.704	65525.27514
597.879	65484.12188
598.053	65488.69164
598.228	65401.98601
598.402	65399.70768
598.576	65500.11911
598.751	65415.65966
598.925	65474.98448
599.1	65474.98448
599.274	65520.69972
599.448	65486.40667
599.622	65392.8737
599.797	65470.41684
599.971	65470.41684
600.145	65347.35336
600.32	65443.0257
600.494	65468.13328
600.668	65420.21893
600.842	65408.82206
601.016	65518.41227
601.191	65420.21893
601.365	65211.19817
601.539	65440.74424
601.713	65474.98448
601.887	65383.76414
602.061	65500.11911
602.235	65422.49883
602.409	65493.2621
602.583	65431.62014
602.758	65555.03275
602.932	65493.2621
603.106	65557.32305
603.28	65506.97772
603.454	65461.28366
603.628	65415.65966
603.802	65511.55101
603.976	65495.54759
604.149	65477.26857
604.323	65431.62014
604.497	65509.26428
604.671	65427.05914
604.845	65461.28366
605.019	65500.11911
605.193	65511.55101
605.367	65424.7789
605.541	65456.71812
605.714	65401.98601
605.888	65411.10109
606.062	65481.83727
606.236	65584.82066
606.41	65367.82903
606.583	65493.2621
606.757	65516.12501
606.931	65461.28366
607.105	65495.54759
607.278	65500.11911
607.452	65545.87335
607.626	65411.10109
607.799	65495.54759
607.973	65513.83792
608.147	65454.43561
608.32	65511.55101
608.494	65465.8499
608.668	65493.2621
608.841	65392.8737
609.015	65404.26452
609.188	65456.71812
609.362	65566.48604
609.535	65479.55283
609.709	65504.69134
609.882	65468.13328
610.056	65440.74424
610.229	65470.41684
610.403	65472.70057
610.576	65367.82903
610.75	65440.74424
610.923	65470.41684
611.097	65527.56312
611.27	65395.15152
611.443	65461.28366
611.617	65561.90419
611.79	65566.48604
611.963	65459.0008
612.137	65470.41684
612.31	65465.8499
612.483	65493.2621
612.657	65477.26857
612.83	65534.42812
613.003	65532.1396
613.177	65493.2621
613.35	65511.55101
613.523	65470.41684
613.696	65447.58914
613.869	65584.82066
614.043	65422.49883
614.216	65470.41684
614.389	65509.26428
614.562	65431.62014
614.735	65486.40667
614.908	65495.54759
615.082	65429.33955
615.255	65474.98448
615.428	65438.46295
615.601	65516.12501
615.774	65488.69164
615.947	65443.0257
616.12	65347.35336
616.293	65383.76414
616.466	65397.42951
616.639	65415.65966
616.812	65447.58914
616.985	65365.55327
617.158	65445.30733
617.331	65463.56669
617.504	65443.0257
617.677	65520.69972
617.85	65474.98448
618.022	65488.69164
618.195	65470.41684
618.368	65406.54321
618.541	65392.8737
618.714	65472.70057
618.887	65461.28366
619.059	65427.05914
619.232	65470.41684
619.405	65313.25786
619.578	65342.80508
619.751	65452.15328
619.923	65429.33955
620.096	65361.00227
620.269	65381.48718
620.441	65431.62014
620.614	65472.70057
620.787	65399.70768
620.96	65413.38029
621.132	65317.80172
621.305	65290.54866
621.477	65347.35336
621.65	65433.9009
621.823	65447.58914
621.995	65342.80508
622.168	65351.90231
622.34	65354.17705
622.513	65365.55327
622.685	65361.00227
622.858	65342.80508
623.03	65401.98601
623.203	65429.33955
623.375	65381.48718
623.548	65422.49883
623.72	65354.17705
623.893	65356.45195
624.065	65379.2104
624.238	65372.38106
624.41	65472.70057
624.582	65310.98618
624.755	65388.31858
624.927	65365.55327
625.1	65358.72702
625.272	65431.62014
625.444	65324.61879
625.617	65238.38112
625.789	65315.52971
625.961	65376.93378
626.133	65313.25786
626.306	65299.63032
626.478	65299.63032
626.65	65283.73919
626.822	65365.55327
626.995	65263.3198
627.167	65274.66223
627.339	65345.07913
627.511	65236.11496
627.683	65274.66223
627.855	65245.18058
628.027	65324.61879
628.2	65258.78399
628.372	65283.73919
628.544	65286.00884
628.716	65283.73919
628.888	65261.05181
629.06	65197.6156
629.232	65361.00227
629.404	65286.00884
629.576	65202.14246
629.748	65301.90116
629.92	65163.68499
630.092	65152.38295
630.264	65249.71439
630.436	65326.89148
630.608	65258.78399
630.78	65254.24886
630.952	65297.35965
631.124	65220.25651
631.295	65242.91393
631.467	65295.08916
631.639	65211.19817
631.811	65290.54866
631.983	65270.12475
632.155	65270.12475
632.326	65265.58795
632.498	65261.05181
632.67	65270.12475
632.842	65304.17216
633.014	65249.71439
633.185	65193.08939
633.357	65281.4697
633.529	65154.64303
633.7	65188.56384
633.872	65304.17216
634.044	65306.44333
634.215	65195.35241
634.387	65270.12475
634.559	65347.35336
634.73	65290.54866
634.902	65338.25749
635.074	65274.66223
635.245	65265.58795
635.417	65288.27867
635.588	65202.14246
635.76	65347.35336
635.931	65333.71058
636.103	65347.35336
636.274	65242.91393
636.446	65295.08916
636.617	65229.31749
636.789	65322.34626
636.96	65315.52971
637.132	65335.98395
637.303	65324.61879
637.474	65356.45195
637.646	65274.66223
637.817	65349.62775
637.989	65301.90116
638.16	65361.00227
638.331	65383.76414
638.503	65247.4474
638.674	65279.20037
638.845	65383.76414
639.017	65295.08916
639.188	65297.35965
639.359	65386.04127
639.53	65372.38106
639.702	65301.90116
639.873	65381.48718
640.044	65345.07913
640.215	65356.45195
640.387	65256.51634
640.558	65238.38112
640.729	65211.19817
640.9	65240.64744
641.071	65251.98154
641.242	65256.51634
641.413	65267.85627
641.585	65313.25786
641.756	65240.64744
641.927	65367.82903
642.098	65292.81883
642.269	65290.54866
642.44	65356.45195
642.611	65283.73919
642.782	65290.54866
642.953	65199.87895
643.124	65242.91393
643.295	65365.55327
643.466	65231.58315
643.637	65295.08916
643.808	65276.93122
643.979	65208.93399
644.15	65181.77674
644.32	65236.11496
644.491	65254.24886
644.662	65401.98601
644.833	65279.20037
645.004	65245.18058
645.175	65288.27867
645.346	65224.78667
645.516	65317.80172
645.687	65270.12475
645.858	65272.39341
646.029	65222.5215
646.199	65304.17216
646.37	65265.58795
646.541	65329.16434
646.712	65202.14246
646.882	65249.71439
647.053	65281.4697
647.224	65276.93122
647.394	65263.3198
647.565	65267.85627
647.736	65306.44333
647.906	65340.5312
648.077	65267.85627
648.248	65338.25749
648.418	65310.98618
648.589	65354.17705
648.759	65295.08916
648.93	65297.35965
649.1	65356.45195
649.271	65224.78667
649.441	65233.84897
649.612	65306.44333
649.782	65231.58315
649.953	65213.4625
650.123	65265.58795
650.294	65206.66998
650.464	65247.4474
650.635	64954.1212
650.805	65270.12475
650.975	65143.34423
651.146	65306.44333
651.316	65261.05181
651.487	65290.54866
651.657	65292.81883
651.827	65224.78667
651.998	65347.35336
652.168	65233.84897
652.338	65297.35965
652.508	65363.27769
652.679	65286.00884
652.849	65206.66998
653.019	65242.91393
653.189	65238.38112
653.36	65251.98154
653.53	65347.35336
653.7	65254.24886
653.87	65367.82903
654.04	65301.90116
654.211	65320.07391
654.381	65224.78667
654.551	65338.25749
654.721	65247.4474
654.891	65322.34626
655.061	65245.18058
655.231	65356.45195
655.401	65370.10496
655.571	65335.98395
655.741	65254.24886
655.911	65301.90116
656.081	65240.64744
656.251	65372.38106
656.421	65267.85627
656.591	65363.27769
656.761	65279.20037
656.931	65404.26452
657.101	65370.10496
657.271	65315.52971
657.441	65292.81883
657.611	65406.54321
657.781	65297.35965
657.951	65340.5312
658.121	65279.20037
658.291	65274.66223
658.46	65381.48718
658.63	65308.71467
658.8	65335.98395
658.97	65304.17216
659.14	65251.98154
659.309	65331.43737
659.479	65286.00884
659.649	65361.00227
659.819	65276.93122
659.988	65397.42951
660.158	65429.33955
660.328	65308.71467
660.497	65372.38106
660.667	65358.72702
660.837	65308.71467
661.006	65288.27867
661.176	65447.58914
661.346	65338.25749
661.515	65379.2104
661.685	65383.76414
661.854	65340.5312
662.024	65367.82903
662.194	65329.16434
662.363	65317.80172
662.533	65370.10496
662.702	65465.8499
662.872	65415.65966
663.041	65306.44333
663.211	65452.15328
663.38	65509.26428
663.55	65372.38106
663.719	65367.82903
663.889	65490.97678
664.058	65447.58914
664.227	65392.8737
664.397	65379.2104
664.566	65376.93378
664.735	65465.8499
664.905	65427.05914
665.074	65427.05914
665.244	65411.10109
665.413	65474.98448
665.582	65388.31858
665.751	65422.49883
665.921	65424.7789
666.09	65433.9009
666.259	65386.04127
666.428	65429.33955
666.598	65433.9009
666.767	65376.93378
666.936	65386.04127
667.105	65365.55327
667.275	65417.93921
667.444	65415.65966
667.613	65322.34626
667.782	65474.98448
667.951	65379.2104
668.12	65406.54321
668.289	65417.93921
668.458	65370.10496
668.628	65472.70057
668.797	65440.74424
668.966	65456.71812
669.135	65338.25749
669.304	65408.82206
669.473	65408.82206
669.642	65436.18184
669.811	65438.46295
669.98	65390.59605
670.149	65367.82903
670.318	65484.12188
670.487	65452.15328
670.656	65397.42951
670.824	65443.0257
670.993	65493.2621
671.162	65395.15152
671.331	65381.48718
671.5	65445.30733
671.669	65465.8499
671.838	65481.83727
672.007	65415.65966
672.175	65431.62014
672.344	65443.0257
672.513	65301.90116
672.682	65477.26857
672.85	65392.8737
673.019	65361.00227
673.188	65335.98395
673.357	65390.59605
673.525	65481.83727
673.694	65481.83727
673.863	65431.62014
674.032	65392.8737
674.2	65459.0008
674.369	65459.0008
674.537	65401.98601
674.706	65497.83326
674.875	65449.87112
675.043	65429.33955
675.212	65415.65966
675.381	65415.65966
675.549	65470.41684
675.718	65488.69164
675.886	65440.74424
676.055	65511.55101
676.223	65484.12188
676.392	65420.21893
676.56	65433.9009
676.729	65445.30733
676.897	65506.97772
677.066	65470.41684
677.234	65468.13328
677.403	65571.06862
677.571	65474.98448
677.739	65465.8499
677.908	65488.69164
678.076	65440.74424
678.244	65454.43561
678.413	65504.69134
678.581	65436.18184
678.75	65490.97678
678.918	65495.54759
679.086	65479.55283
679.254	65573.36017
679.423	65383.76414
679.591	65479.55283
679.759	65474.98448
679.928	65502.40514
680.096	65454.43561
680.264	65488.69164
680.432	65449.87112
680.6	65477.26857
680.769	65429.33955
680.937	65529.85127
681.105	65429.33955
681.273	65427.05914
681.441	65481.83727
681.609	65374.65734
681.777	65481.83727
681.945	65447.58914
682.114	65504.69134
682.282	65456.71812
682.45	65488.69164
682.618	65516.12501
682.786	65573.36017
682.954	65468.13328
683.122	65297.35965
683.29	65395.15152
683.458	65502.40514
683.626	65497.83326
683.794	65468.13328
683.962	65587.11329
684.13	65413.38029
684.298	65527.56312
684.465	65461.28366
684.633	65516.12501
684.801	65529.85127
684.969	65504.69134
685.137	65424.7789
685.305	65525.27514
685.473	65465.8499
685.64	65525.27514
685.808	65603.16682
685.976	65397.42951
686.144	65552.74263
686.312	65383.76414
686.479	65545.87335
686.647	65536.71681
686.815	65495.54759
686.983	65513.83792
687.15	65477.26857
687.318	65511.55101
687.486	65479.55283
687.653	65465.8499
687.821	65518.41227
687.989	65468.13328
688.156	65559.61353
688.324	65534.42812
688.492	65477.26857
688.659	65621.52459
688.827	65449.87112
688.994	65543.58395
689.162	65525.27514
689.329	65417.93921
689.497	65545.87335
689.665	65587.11329
689.832	65474.98448
690	65456.71812
690.167	65555.03275
690.335	65516.12501
690.502	65539.00567
690.669	65474.98448
690.837	65518.41227
691.004	65427.05914
691.172	65424.7789
691.339	65408.82206
691.507	65577.94383
691.674	65543.58395
691.841	65552.74263
692.009	65591.69911
692.176	65506.97772
692.343	65552.74263
692.511	65513.83792
692.678	65520.69972
692.845	65506.97772
693.013	65561.90419
693.18	65472.70057
693.347	65493.2621
693.514	65596.28565
693.682	65495.54759
693.849	65541.29472
694.016	65520.69972
694.183	65452.15328
694.35	65635.30057
694.518	65548.16293
694.685	65550.45269
694.852	65545.87335
695.019	65639.89402
695.186	65509.26428
695.353	65431.62014
695.52	65486.40667
695.687	65481.83727
695.855	65500.11911
696.022	65497.83326
696.189	65543.58395
696.356	65561.90419
696.523	65612.34425
696.69	65429.33955
696.857	65639.89402
697.024	65468.13328
697.191	65559.61353
697.358	65470.41684
697.525	65452.15328
697.692	65502.40514
697.858	65577.94383
698.025	65486.40667
698.192	65490.97678
698.359	65591.69911
698.526	65502.40514
698.693	65509.26428
698.86	65552.74263
699.027	65532.1396
699.193	65598.5792
699.36	65552.74263
699.527	65564.19503
699.694	65587.11329
699.861	65587.11329
700.027	65429.33955
700.194	65474.98448
700.361	65490.97678
700.528	65481.83727
700.694	65536.71681
700.861	65573.36017
701.028	65504.69134
701.195	65504.69134
701.361	65495.54759
701.528	65543.58395
701.694	65486.40667
701.861	65612.34425
702.028	65413.38029
702.194	65472.70057
702.361	65543.58395
702.528	65541.29472
702.694	65534.42812
702.861	65388.31858
703.027	65502.40514
703.194	65559.61353
703.36	65504.69134
703.527	65603.16682
703.693	65449.87112
703.86	65438.46295
704.026	65527.56312
704.193	65678.96799
704.359	65525.27514
704.526	65575.65191
