Data from Sun spf550_Subt2__0__10-00-16-810.txt Node

Date: Tue Sep 23 10:00:16 EDT 2025
User: brett
Spectrometer: USB4F03499
Trigger mode: 4
Integration Time (sec): 1.000000E-1
Scans to average: 1
Electric dark correction enabled: true
Nonlinearity correction enabled: true
Boxcar width: 0
XAxis mode: Wavelengths
Number of Pixels in Spectrum: 3648
>>>>>Begin Spectral Data<<<<<
0	47.8441
0.225	47.8441
0.449	47.8441
0.674	-21.31075
0.898	-30.53861
1.123	-0.5722
1.347	-69.36129
1.572	-25.81485
1.796	91.20189
2.021	70.43854
2.245	63.38651
2.469	15.47424
2.694	-60.10456
2.918	-2.86696
3.143	24.65777
3.367	-67.09217
3.591	-39.60477
3.815	-18.91818
4.04	505.98917
4.264	803.92187
4.488	730.41951
4.712	624.04623
4.936	709.91603
5.161	712.89349
5.385	667.03949
5.609	708.45034
5.833	811.99799
6.057	765.9229
6.281	719.70159
6.505	894.89655
6.729	695.78261
6.953	896.39032
7.177	879.93248
7.401	775.53056
7.625	710.17343
7.849	753.71645
8.073	919.55218
8.297	851.32953
8.521	702.55271
8.744	774.47814
8.968	860.13155
9.192	824.29627
9.416	856.22492
9.64	805.80632
9.863	828.10542
10.087	926.10499
10.311	852.37311
10.535	669.36943
10.758	664.12105
10.982	755.62466
11.205	691.55868
11.429	748.80278
11.653	851.26845
11.876	789.81179
12.1	809.92557
12.323	864.53775
12.547	852.06514
12.77	861.61441
12.994	843.91284
13.217	858.88428
13.441	805.33722
13.664	879.47232
13.887	863.53466
14.111	951.74477
14.334	775.26377
14.557	793.23783
14.781	850.78106
15.004	747.50519
15.227	750.22502
15.451	830.4612
15.674	789.86824
15.897	813.18884
16.12	913.84844
16.343	905.13565
16.567	966.05053
16.79	910.1117
17.013	851.19712
17.236	833.96383
17.459	875.79017
17.682	862.72624
17.905	1011.45947
18.128	991.01528
18.351	835.83484
18.574	879.36896
18.797	945.81377
19.02	913.65296
19.243	968.96961
19.466	886.10966
19.689	1039.40744
19.911	955.47017
20.134	937.91869
20.357	1057.74737
20.58	1004.94142
20.803	1003.43288
21.025	1026.92218
21.248	880.81472
21.471	896.91943
21.694	859.94118
21.916	1012.10308
22.139	1072.4649
22.362	956.66947
22.584	1036.89267
22.807	935.63999
23.029	962.45407
23.252	995.42612
23.475	1049.63265
23.697	1085.40845
23.92	1019.27134
24.142	1130.81084
24.365	1167.90749
24.587	1055.82711
24.809	1206.1007
25.032	1322.87271
25.254	1131.76861
25.477	1262.81265
25.699	1235.29774
25.921	1279.05189
26.144	1286.19765
26.366	1326.00932
26.588	1361.76532
26.81	1466.06381
27.033	1440.43441
27.255	1478.07271
27.477	1573.37776
27.699	1604.40733
27.921	1707.67387
28.144	1677.76646
28.366	1844.38197
28.588	2003.50861
28.81	2030.52059
29.032	2124.44555
29.254	2373.21041
29.476	2272.52298
29.698	2444.0079
29.92	2477.99646
30.142	2713.01338
30.364	2837.55582
30.586	2971.68966
30.808	3085.18091
31.029	3167.22284
31.251	3288.34676
31.473	3380.90625
31.695	3779.99346
31.917	3628.32275
32.139	3785.7857
32.36	3924.49281
32.582	4373.74118
32.804	4277.23065
33.026	4568.34929
33.247	4385.60881
33.469	5021.96533
33.691	5034.95447
33.912	5188.4785
34.134	5310.63249
34.355	5648.9164
34.577	5722.25236
34.798	6100.19582
35.02	6134.28686
35.242	6299.71954
35.463	6589.09838
35.684	6656.80613
35.906	6959.68963
36.127	7112.69025
36.349	7189.45844
36.57	7883.9705
36.792	8152.21632
37.013	8206.78098
37.234	8378.18068
37.456	8366.85901
37.677	8845.22368
37.898	9116.38898
38.119	9169.65953
38.341	9292.2714
38.562	9786.37485
38.783	10346.66518
39.004	10310.60346
39.225	10599.02913
39.447	10840.15666
39.668	11412.62733
39.889	11500.79023
40.11	11894.76542
40.331	12175.37791
40.552	12847.85891
40.773	12934.99245
40.994	13346.84692
41.215	13686.59212
41.436	14439.7009
41.657	14584.12074
41.878	15145.19119
42.099	15704.50242
42.32	16376.02432
42.54	16756.24172
42.761	17245.879
42.982	17953.4045
43.203	18367.07336
43.424	19187.87448
43.645	19104.51739
43.865	20166.96847
44.086	19949.46493
44.307	21001.63824
44.527	21503.82493
44.748	22050.72649
44.969	22788.32748
45.189	22590.24289
45.41	22522.50539
45.631	24160.93545
45.851	24017.24317
46.072	24498.2971
46.292	24910.23715
46.513	25184.40627
46.733	26959.18132
46.954	27606.91128
47.174	29053.59745
47.395	28392.79117
47.615	30345.37456
47.836	30661.16905
48.056	31898.89105
48.276	31213.53543
48.497	31318.75468
48.717	32969.68177
48.937	33452.70095
49.158	34358.92411
49.378	34045.04592
49.598	34811.34083
49.818	36081.52035
50.038	35890.80029
50.259	37113.58726
50.479	37721.10359
50.699	39111.7262
50.919	40864.12471
51.139	41754.07794
51.359	42981.9768
51.579	45322.52666
51.799	44441.08721
52.02	46350.10799
52.24	48065.25722
52.46	49508.41297
52.68	51683.48146
52.899	50480.51339
53.119	53487.34815
53.339	57303.66555
53.559	56933.25399
53.779	59347.79039
53.999	62689.49627
54.219	63483.47196
54.439	65700.54995
54.658	65735.02423
54.878	65636.30784
55.098	65675.295
55.318	65613.39857
55.538	65585.93107
55.757	65636.30784
55.977	65647.76923
56.197	65576.78094
56.416	65650.06205
56.636	65647.76923
56.855	65670.70556
57.075	65585.93107
57.295	65682.18053
57.514	65723.52821
57.734	65620.26946
57.953	65636.30784
58.173	65627.14198
58.392	65663.82276
58.612	65673.00019
58.831	65677.58999
59.051	65615.68869
59.27	65549.34757
59.489	65631.72455
59.709	65645.47659
59.928	65666.11684
60.147	65650.06205
60.367	65675.295
60.586	65597.37274
60.805	65656.94159
61.024	65638.59976
61.244	65718.93109
61.463	65652.35505
61.682	65629.43317
61.901	65617.97899
62.12	65675.295
62.34	65638.59976
62.559	65643.18413
62.778	65519.65673
62.997	65663.82276
63.216	65707.44151
63.435	65700.54995
63.654	65549.34757
63.873	65661.52885
64.092	65647.76923
64.311	65588.21905
64.53	65627.14198
64.749	65645.47659
64.968	65634.01611
65.187	65730.42527
65.405	65647.76923
65.624	65643.18413
65.843	65622.56012
66.062	65631.72455
66.281	65595.08405
66.499	65718.93109
66.718	65700.54995
66.937	65617.97899
67.156	65634.01611
67.374	65673.00019
67.593	65535.64042
67.812	65643.18413
68.03	65654.64823
68.249	65702.84695
68.467	65673.00019
68.686	65606.52928
68.905	65595.08405
69.123	65764.93549
69.342	65638.59976
69.56	65668.41111
69.779	65741.92405
69.997	65615.68869
70.216	65656.94159
70.434	65631.72455
70.652	65601.95065
70.871	65647.76923
71.089	65675.295
71.307	65716.63281
71.526	65624.85096
71.744	65682.18053
71.962	65675.295
72.181	65679.88517
72.399	65673.00019
72.617	65629.43317
72.835	65613.39857
73.054	65682.18053
73.272	65659.23513
73.49	65670.70556
73.708	65723.52821
73.926	65714.33471
74.144	65709.73906
74.362	65624.85096
74.58	65659.23513
74.798	65656.94159
75.016	65640.89186
75.234	65673.00019
75.452	65647.76923
75.67	65611.10863
75.888	65684.47607
76.106	65585.93107
76.324	65718.93109
76.542	65723.52821
76.76	65643.18413
76.978	65654.64823
77.196	65686.77179
77.413	65613.39857
77.631	65590.5072
77.849	65698.25314
78.067	65608.81886
78.284	65606.52928
78.502	65663.82276
78.72	65663.82276
78.938	65718.93109
79.155	65700.54995
79.373	65654.64823
79.59	65700.54995
79.808	65663.82276
80.026	65689.06769
80.243	65673.00019
80.461	65563.06107
80.678	65547.0626
80.896	65606.52928
81.113	65636.30784
81.331	65668.41111
81.548	65462.64195
81.766	65601.95065
81.983	65624.85096
82.2	65675.295
82.418	65730.42527
82.635	65595.08405
82.852	65499.11888
83.07	65645.47659
83.287	65656.94159
83.504	65622.56012
83.722	65549.34757
83.939	65638.59976
84.156	65542.4932
84.373	65695.9565
84.591	65654.64823
84.808	65640.89186
85.025	65601.95065
85.242	65675.295
85.459	65634.01611
85.676	65645.47659
85.893	65712.03679
86.11	65627.14198
86.327	65629.43317
86.544	65640.89186
86.761	65670.70556
86.978	65601.95065
87.195	65636.30784
87.412	65746.52486
87.629	65691.36378
87.846	65652.35505
88.063	65567.63365
88.28	65645.47659
88.497	65654.64823
88.713	65684.47607
88.93	65709.73906
89.147	65670.70556
89.364	65611.10863
89.58	65638.59976
89.797	65611.10863
90.014	65640.89186
90.231	65588.21905
90.447	65666.11684
90.664	65611.10863
90.881	65620.26946
91.097	65574.49385
91.314	65581.35565
91.53	65659.23513
91.747	65629.43317
91.963	65693.66005
92.18	65645.47659
92.396	65645.47659
92.613	65631.72455
92.829	65730.42527
93.046	65714.33471
93.262	65705.14414
93.479	65613.39857
93.695	65620.26946
93.911	65654.64823
94.128	65705.14414
94.344	65567.63365
94.56	65606.52928
94.777	65753.42746
94.993	65684.47607
95.209	65579.06821
95.426	65426.20921
95.642	65707.44151
95.858	65668.41111
96.074	65652.35505
96.29	65718.93109
96.506	65647.76923
96.723	65629.43317
96.939	65700.54995
97.155	65689.06769
97.371	65638.59976
97.587	65670.70556
97.803	65673.00019
98.019	65663.82276
98.235	65606.52928
98.451	65695.9565
98.667	65549.34757
98.883	65686.77179
99.099	65718.93109
99.315	65691.36378
99.53	65631.72455
99.746	65663.82276
99.962	65698.25314
100.178	65654.64823
100.394	65656.94159
100.61	65723.52821
100.825	65608.81886
101.041	65686.77179
101.257	65634.01611
101.473	65638.59976
101.688	65620.26946
101.904	65677.58999
102.12	65645.47659
102.335	65631.72455
102.551	65677.58999
102.766	65585.93107
102.982	65663.82276
103.198	65684.47607
103.413	65643.18413
103.629	65675.295
103.844	65668.41111
104.06	65656.94159
104.275	65604.23988
104.49	65622.56012
104.706	65695.9565
104.921	65059.72937
105.137	65643.18413
105.352	65576.78094
105.567	65656.94159
105.783	65634.01611
105.998	65627.14198
106.213	65608.81886
106.429	65693.66005
106.644	65677.58999
106.859	65636.30784
107.074	65510.52705
107.29	65695.9565
107.505	65661.52885
107.72	65590.5072
107.935	65595.08405
108.15	65627.14198
108.365	65707.44151
108.58	65604.23988
108.795	65597.37274
109.01	65604.23988
109.226	65728.12606
109.441	65489.99548
109.656	65707.44151
109.871	65540.20876
110.085	65608.81886
110.3	65638.59976
110.515	65716.63281
110.73	65553.91803
110.945	65666.11684
111.16	65608.81886
111.375	65613.39857
111.59	65661.52885
111.804	65631.72455
112.019	65634.01611
112.234	65670.70556
112.449	65608.81886
112.663	65647.76923
112.878	65670.70556
113.093	65650.06205
113.308	65563.06107
113.522	65647.76923
113.737	65769.54001
113.951	65617.97899
114.166	65650.06205
114.381	65638.59976
114.595	65661.52885
114.81	65631.72455
115.024	65645.47659
115.239	65617.97899
115.453	65679.88517
115.668	65663.82276
115.882	65611.10863
116.097	65663.82276
116.311	65746.52486
116.525	65638.59976
116.74	65753.42746
116.954	65601.95065
117.169	65650.06205
117.383	65631.72455
117.597	65588.21905
117.811	65647.76923
118.026	65563.06107
118.24	65599.66161
118.454	65652.35505
118.668	65654.64823
118.883	65654.64823
119.097	65636.30784
119.311	65636.30784
119.525	65638.59976
119.739	65643.18413
119.953	65663.82276
120.167	65521.93959
120.381	65673.00019
120.595	65638.59976
120.809	65679.88517
121.023	65624.85096
121.237	65663.82276
121.451	65673.00019
121.665	65668.41111
121.879	65636.30784
122.093	65572.20694
122.307	65744.22436
122.521	65684.47607
122.735	65572.20694
122.949	65668.41111
123.163	65723.52821
123.376	65606.52928
123.59	65585.93107
123.804	65643.18413
124.018	65679.88517
124.231	65691.36378
124.445	65714.33471
124.659	65569.92021
124.872	65551.63271
125.086	65647.76923
125.3	65643.18413
125.513	65624.85096
125.727	65679.88517
125.94	65627.14198
126.154	65647.76923
126.368	65695.9565
126.581	65670.70556
126.795	65679.88517
127.008	65675.295
127.222	65707.44151
127.435	65695.9565
127.648	65693.66005
127.862	65622.56012
128.075	65686.77179
128.289	65604.23988
128.502	65698.25314
128.715	65634.01611
128.929	65748.82554
129.142	65675.295
129.355	65645.47659
129.568	65583.64327
129.782	65622.56012
129.995	65567.63365
130.208	65668.41111
130.421	65689.06769
130.634	65682.18053
130.848	65604.23988
131.061	65567.63365
131.274	65608.81886
131.487	65707.44151
131.7	65679.88517
131.913	65606.52928
132.126	65652.35505
132.339	65556.20353
132.552	65467.19914
132.765	65574.49385
132.978	65652.35505
133.191	65675.295
133.404	65611.10863
133.617	65670.70556
133.83	65622.56012
134.043	65700.54995
134.255	65725.82704
134.468	65624.85096
134.681	65721.22956
134.894	65762.63352
135.107	65691.36378
135.319	65613.39857
135.532	65640.89186
135.745	65606.52928
135.958	65659.23513
136.17	65732.72466
136.383	65636.30784
136.596	65684.47607
136.808	65656.94159
137.021	65595.08405
137.233	65686.77179
137.446	65629.43317
137.659	65668.41111
137.871	65519.65673
138.084	65659.23513
138.296	65620.26946
138.509	65654.64823
138.721	65689.06769
138.934	65636.30784
139.146	65622.56012
139.358	65682.18053
139.571	65560.77505
139.783	65565.34727
139.996	65640.89186
140.208	65585.93107
140.42	65592.79554
140.632	65620.26946
140.845	65673.00019
141.057	65732.72466
141.269	65679.88517
141.481	65654.64823
141.694	65700.54995
141.906	65634.01611
142.118	65751.12641
142.33	65627.14198
142.542	65707.44151
142.754	65615.68869
142.967	65739.62393
143.179	65693.66005
143.391	65581.35565
143.603	65673.00019
143.815	65569.92021
144.027	65650.06205
144.239	65542.4932
144.451	65640.89186
144.663	65652.35505
144.875	65576.78094
145.086	65544.77781
145.298	65597.37274
145.51	65675.295
145.722	65579.06821
145.934	65668.41111
146.146	65673.00019
146.358	65656.94159
146.569	65707.44151
146.781	65622.56012
146.993	65705.14414
147.205	65558.4892
147.416	65659.23513
147.628	65650.06205
147.84	65608.81886
148.051	65656.94159
148.263	65622.56012
148.475	65695.9565
148.686	65661.52885
148.898	65585.93107
149.109	65569.92021
149.321	65698.25314
149.532	65576.78094
149.744	65634.01611
149.955	65611.10863
150.167	65666.11684
150.378	65652.35505
150.59	65682.18053
150.801	65721.22956
151.013	65707.44151
151.224	65569.92021
151.435	65656.94159
151.647	65569.92021
151.858	65624.85096
152.069	65656.94159
152.281	65659.23513
152.492	65629.43317
152.703	65663.82276
152.914	65528.78921
153.126	65624.85096
153.337	65629.43317
153.548	65725.82704
153.759	65620.26946
153.97	65705.14414
154.181	65689.06769
154.392	65599.66161
154.604	65716.63281
154.815	65679.88517
155.026	65613.39857
155.237	65656.94159
155.448	65549.34757
155.659	65631.72455
155.87	65638.59976
156.081	65617.97899
156.292	65686.77179
156.502	65718.93109
156.713	65615.68869
156.924	65592.79554
157.135	65636.30784
157.346	65652.35505
157.557	65615.68869
157.768	65682.18053
157.978	65723.52821
158.189	65627.14198
158.4	65689.06769
158.611	65627.14198
158.821	65576.78094
159.032	65666.11684
159.243	65597.37274
159.453	65645.47659
159.664	65645.47659
159.875	65606.52928
160.085	65682.18053
160.296	65606.52928
160.507	65666.11684
160.717	65691.36378
160.928	65604.23988
161.138	65808.70851
161.349	65663.82276
161.559	65730.42527
161.77	65661.52885
161.98	65684.47607
162.19	65611.10863
162.401	65666.11684
162.611	65599.66161
162.822	65673.00019
163.032	65666.11684
163.242	65679.88517
163.453	65599.66161
163.663	65702.84695
163.873	65627.14198
164.084	65689.06769
164.294	65700.54995
164.504	65650.06205
164.714	65631.72455
164.924	65634.01611
165.135	65684.47607
165.345	65604.23988
165.555	65643.18413
165.765	65590.5072
165.975	65599.66161
166.185	65647.76923
166.395	65675.295
166.605	65716.63281
166.815	65705.14414
167.025	65663.82276
167.235	65565.34727
167.445	65762.63352
167.655	65627.14198
167.865	65656.94159
168.075	65640.89186
168.285	65656.94159
168.495	65638.59976
168.705	65574.49385
168.915	65549.34757
169.124	65613.39857
169.334	65615.68869
169.544	65620.26946
169.754	65656.94159
169.964	65611.10863
170.173	65585.93107
170.383	65631.72455
170.593	65638.59976
170.802	65595.08405
171.012	65698.25314
171.222	65661.52885
171.431	65702.84695
171.641	65668.41111
171.851	65723.52821
172.06	65682.18053
172.27	65684.47607
172.479	65617.97899
172.689	65679.88517
172.898	65627.14198
173.108	65670.70556
173.317	65604.23988
173.527	65709.73906
173.736	65714.33471
173.945	65640.89186
174.155	65601.95065
174.364	65604.23988
174.574	65640.89186
174.783	65652.35505
174.992	65590.5072
175.202	65650.06205
175.411	65592.79554
175.62	65679.88517
175.829	65693.66005
176.039	65629.43317
176.248	65599.66161
176.457	65652.35505
176.666	65567.63365
176.875	65684.47607
177.084	65613.39857
177.294	65691.36378
177.503	65705.14414
177.712	65563.06107
177.921	65686.77179
178.13	65654.64823
178.339	65741.92405
178.548	65675.295
178.757	65643.18413
178.966	65604.23988
179.175	65617.97899
179.384	65661.52885
179.593	65638.59976
179.802	65716.63281
180.011	65643.18413
180.219	65663.82276
180.428	65634.01611
180.637	65634.01611
180.846	65604.23988
181.055	65636.30784
181.263	65661.52885
181.472	65558.4892
181.681	65691.36378
181.89	65627.14198
182.098	65560.77505
182.307	65668.41111
182.516	65629.43317
182.724	65645.47659
182.933	65608.81886
183.142	65732.72466
183.35	65629.43317
183.559	65636.30784
183.767	65652.35505
183.976	65682.18053
184.184	65695.9565
184.393	65622.56012
184.601	65682.18053
184.81	65563.06107
185.018	65686.77179
185.227	65624.85096
185.435	65705.14414
185.644	65608.81886
185.852	65751.12641
186.06	65606.52928
186.269	65606.52928
186.477	65601.95065
186.685	65650.06205
186.894	65560.77505
187.102	65645.47659
187.31	65576.78094
187.518	65650.06205
187.727	65735.02423
187.935	65712.03679
188.143	65652.35505
188.351	65620.26946
188.559	65712.03679
188.768	65574.49385
188.976	65595.08405
189.184	65611.10863
189.392	65608.81886
189.6	65617.97899
189.808	65537.9245
190.016	65679.88517
190.224	65668.41111
190.432	65638.59976
190.64	65643.18413
190.848	65634.01611
191.056	65585.93107
191.264	65624.85096
191.472	65650.06205
191.679	65666.11684
191.887	65659.23513
192.095	65741.92405
192.303	65622.56012
192.511	65673.00019
192.719	65748.82554
192.926	65592.79554
193.134	65748.82554
193.342	65677.58999
193.55	65656.94159
193.757	65650.06205
193.965	65627.14198
194.173	65611.10863
194.38	65716.63281
194.588	65691.36378
194.796	65670.70556
195.003	65595.08405
195.211	65691.36378
195.418	65673.00019
195.626	65739.62393
195.833	65634.01611
196.041	65590.5072
196.248	65650.06205
196.456	65592.79554
196.663	65549.34757
196.871	65679.88517
197.078	65631.72455
197.285	65656.94159
197.493	65631.72455
197.7	65512.80921
197.908	65624.85096
198.115	65666.11684
198.322	65636.30784
198.529	65707.44151
198.737	65725.82704
198.944	65631.72455
199.151	65723.52821
199.358	65689.06769
199.566	65767.23766
199.773	65558.4892
199.98	65654.64823
200.187	65684.47607
200.394	65647.76923
200.601	65526.50583
200.809	65737.32399
201.016	65624.85096
201.223	65617.97899
201.43	65732.72466
201.637	65675.295
201.844	65679.88517
202.051	65753.42746
202.258	65629.43317
202.465	65670.70556
202.672	65741.92405
202.878	65647.76923
203.085	65675.295
203.292	65629.43317
203.499	65599.66161
203.706	65647.76923
203.913	65645.47659
204.12	65707.44151
204.326	65689.06769
204.533	65700.54995
204.74	65590.5072
204.947	65638.59976
205.153	65650.06205
205.36	65634.01611
205.567	65739.62393
205.773	65732.72466
205.98	65611.10863
206.187	65654.64823
206.393	65645.47659
206.6	65668.41111
206.806	65709.73906
207.013	65583.64327
207.22	65590.5072
207.426	65700.54995
207.633	65640.89186
207.839	65574.49385
208.046	65606.52928
208.252	65608.81886
208.458	65604.23988
208.665	65631.72455
208.871	65670.70556
209.078	65563.06107
209.284	65654.64823
209.49	65666.11684
209.697	65668.41111
209.903	65707.44151
210.109	65673.00019
210.316	65606.52928
210.522	65686.77179
210.728	65624.85096
210.934	65428.48497
211.14	65668.41111
211.347	65728.12606
211.553	65613.39857
211.759	65636.30784
211.965	65590.5072
212.171	65613.39857
212.377	65579.06821
212.583	65640.89186
212.789	65677.58999
212.996	65627.14198
213.202	65592.79554
213.408	65634.01611
213.614	65640.89186
213.82	65689.06769
214.025	65673.00019
214.231	65718.93109
214.437	65677.58999
214.643	65574.49385
214.849	65638.59976
215.055	65645.47659
215.261	65702.84695
215.467	65636.30784
215.672	65716.63281
215.878	65576.78094
216.084	65695.9565
216.29	65636.30784
216.496	65560.77505
216.701	65604.23988
216.907	65698.25314
217.113	65638.59976
217.318	65569.92021
217.524	65682.18053
217.73	65693.66005
217.935	65661.52885
218.141	65608.81886
218.346	65627.14198
218.552	65659.23513
218.758	65627.14198
218.963	65615.68869
219.169	65624.85096
219.374	65636.30784
219.58	65636.30784
219.785	65656.94159
219.991	65583.64327
220.196	65737.32399
220.401	65670.70556
220.607	65640.89186
220.812	65556.20353
221.017	65645.47659
221.223	65592.79554
221.428	65567.63365
221.633	65588.21905
221.839	65636.30784
222.044	65695.9565
222.249	65627.14198
222.454	65620.26946
222.66	65622.56012
222.865	65668.41111
223.07	65521.93959
223.275	65643.18413
223.48	65611.10863
223.686	65695.9565
223.891	65725.82704
224.096	65718.93109
224.301	65535.64042
224.506	65691.36378
224.711	65597.37274
224.916	65677.58999
225.121	65670.70556
225.326	65668.41111
225.531	65695.9565
225.736	65675.295
225.941	65705.14414
226.146	65654.64823
226.351	65624.85096
226.555	65622.56012
226.76	65617.97899
226.965	65721.22956
227.17	65663.82276
227.375	65686.77179
227.58	65670.70556
227.784	65601.95065
227.989	65760.33172
228.194	65682.18053
228.399	65611.10863
228.603	65702.84695
228.808	65677.58999
229.013	65588.21905
229.217	65640.89186
229.422	65693.66005
229.627	65654.64823
229.831	65675.295
230.036	65606.52928
230.24	65634.01611
230.445	65611.10863
230.649	65634.01611
230.854	65624.85096
231.058	65663.82276
231.263	65652.35505
231.467	65620.26946
231.672	65659.23513
231.876	65640.89186
232.081	65590.5072
232.285	65613.39857
232.489	65611.10863
232.694	65679.88517
232.898	65590.5072
233.102	65547.0626
233.307	65634.01611
233.511	65656.94159
233.715	65608.81886
233.919	65585.93107
234.124	65700.54995
234.328	65739.62393
234.532	65636.30784
234.736	65597.37274
234.94	65691.36378
235.145	65631.72455
235.349	65620.26946
235.553	65526.50583
235.757	65535.64042
235.961	65693.66005
236.165	65686.77179
236.369	65601.95065
236.573	65604.23988
236.777	65700.54995
236.981	65627.14198
237.185	65563.06107
237.389	65661.52885
237.593	65640.89186
237.797	65611.10863
238.001	65606.52928
238.205	65622.56012
238.409	65677.58999
238.612	65682.18053
238.816	65519.65673
239.02	65645.47659
239.224	65659.23513
239.428	65608.81886
239.631	65631.72455
239.835	65615.68869
240.039	65645.47659
240.243	65595.08405
240.446	65569.92021
240.65	65695.9565
240.854	65794.87816
241.057	65620.26946
241.261	65695.9565
241.464	65716.63281
241.668	65592.79554
241.872	65682.18053
242.075	65643.18413
242.279	65631.72455
242.482	65679.88517
242.686	65670.70556
242.889	65579.06821
243.093	65682.18053
243.296	65585.93107
243.499	65643.18413
243.703	65645.47659
243.906	65705.14414
244.11	65615.68869
244.313	65650.06205
244.516	65624.85096
244.72	65585.93107
244.923	65707.44151
245.126	65551.63271
245.33	65622.56012
245.533	65698.25314
245.736	65624.85096
245.939	65661.52885
246.142	65629.43317
246.346	65677.58999
246.549	65723.52821
246.752	65682.18053
246.955	65659.23513
247.158	65617.97899
247.361	65663.82276
247.564	65604.23988
247.767	65563.06107
247.971	65645.47659
248.174	65613.39857
248.377	65663.82276
248.58	65723.52821
248.783	65689.06769
248.985	65650.06205
249.188	65663.82276
249.391	65615.68869
249.594	65645.47659
249.797	65693.66005
250	65565.34727
250.203	65661.52885
250.406	65668.41111
250.609	65695.9565
250.811	65673.00019
251.014	65673.00019
251.217	65705.14414
251.42	65689.06769
251.622	65521.93959
251.825	65585.93107
252.028	65673.00019
252.231	65677.58999
252.433	65691.36378
252.636	65583.64327
252.838	65611.10863
253.041	65647.76923
253.244	65597.37274
253.446	65547.0626
253.649	65634.01611
253.851	65590.5072
254.054	65668.41111
254.256	65581.35565
254.459	65673.00019
254.661	65615.68869
254.864	65693.66005
255.066	65489.99548
255.269	65652.35505
255.471	65617.97899
255.673	65601.95065
255.876	65673.00019
256.078	65617.97899
256.281	65629.43317
256.483	65645.47659
256.685	65700.54995
256.887	65636.30784
257.09	65627.14198
257.292	65691.36378
257.494	65601.95065
257.696	65661.52885
257.899	65691.36378
258.101	65549.34757
258.303	65622.56012
258.505	65721.22956
258.707	65654.64823
258.909	65682.18053
259.111	65741.92405
259.314	65622.56012
259.516	65673.00019
259.718	65585.93107
259.92	65631.72455
260.122	65659.23513
260.324	65673.00019
260.526	65565.34727
260.728	65629.43317
260.93	65611.10863
261.131	65728.12606
261.333	65686.77179
261.535	65650.06205
261.737	65677.58999
261.939	65604.23988
262.141	65640.89186
262.343	65597.37274
262.544	65615.68869
262.746	65615.68869
262.948	65698.25314
263.15	65647.76923
263.352	65576.78094
263.553	65645.47659
263.755	65698.25314
263.957	65572.20694
264.158	65608.81886
264.36	65631.72455
264.562	65595.08405
264.763	65682.18053
264.965	65613.39857
265.166	65666.11684
265.368	65569.92021
265.569	65675.295
265.771	65670.70556
265.972	65606.52928
266.174	65675.295
266.375	65661.52885
266.577	65647.76923
266.778	65615.68869
266.98	65645.47659
267.181	65695.9565
267.383	65716.63281
267.584	65567.63365
267.785	65652.35505
267.987	65673.00019
268.188	65721.22956
268.389	65606.52928
268.591	65716.63281
268.792	65714.33471
268.993	65617.97899
269.194	65673.00019
269.396	65581.35565
269.597	65634.01611
269.798	65684.47607
269.999	65631.72455
270.2	65714.33471
270.401	65576.78094
270.603	65675.295
270.804	65691.36378
271.005	65693.66005
271.206	65645.47659
271.407	65617.97899
271.608	65572.20694
271.809	65650.06205
272.01	65636.30784
272.211	65663.82276
272.412	65601.95065
272.613	65595.08405
272.814	65698.25314
273.015	65670.70556
273.216	65691.36378
273.416	65666.11684
273.617	65590.5072
273.818	65615.68869
274.019	65659.23513
274.22	65599.66161
274.421	65629.43317
274.621	65666.11684
274.822	65631.72455
275.023	65636.30784
275.224	65643.18413
275.424	65725.82704
275.625	65758.03012
275.826	65652.35505
276.026	65695.9565
276.227	65659.23513
276.428	65611.10863
276.628	65604.23988
276.829	65606.52928
277.029	65659.23513
277.23	65636.30784
277.43	65613.39857
277.631	65569.92021
277.831	65728.12606
278.032	65705.14414
278.232	65659.23513
278.433	65675.295
278.633	65567.63365
278.834	65677.58999
279.034	65606.52928
279.234	65576.78094
279.435	65647.76923
279.635	65627.14198
279.835	65654.64823
280.036	65565.34727
280.236	65739.62393
280.436	65675.295
280.637	65647.76923
280.837	65581.35565
281.037	65652.35505
281.237	65652.35505
281.438	65666.11684
281.638	65675.295
281.838	65670.70556
282.038	65670.70556
282.238	65647.76923
282.438	65656.94159
282.638	65654.64823
282.838	65673.00019
283.038	65627.14198
283.239	65668.41111
283.439	65650.06205
283.639	65553.91803
283.839	65684.47607
284.039	65624.85096
284.238	65650.06205
284.438	65606.52928
284.638	65700.54995
284.838	65677.58999
285.038	65679.88517
285.238	65702.84695
285.438	65643.18413
285.638	65640.89186
285.838	65645.47659
286.037	65611.10863
286.237	65684.47607
286.437	65691.36378
286.637	65668.41111
286.836	65666.11684
287.036	65716.63281
287.236	65613.39857
287.436	65700.54995
287.635	65636.30784
287.835	65645.47659
288.034	65650.06205
288.234	65556.20353
288.434	65622.56012
288.633	65659.23513
288.833	65693.66005
289.032	65748.82554
289.232	65636.30784
289.431	65636.30784
289.631	65673.00019
289.83	65567.63365
290.03	65695.9565
290.229	65684.47607
290.429	65755.72869
290.628	65585.93107
290.828	65718.93109
291.027	65741.92405
291.226	65668.41111
291.426	65629.43317
291.625	65512.80921
291.824	65663.82276
292.024	65663.82276
292.223	65695.9565
292.422	65654.64823
292.621	65673.00019
292.821	65620.26946
293.02	65659.23513
293.219	65588.21905
293.418	65693.66005
293.617	65599.66161
293.817	65686.77179
294.016	65558.4892
294.215	65590.5072
294.414	65732.72466
294.613	65668.41111
294.812	65654.64823
295.011	65682.18053
295.21	65631.72455
295.409	65721.22956
295.608	65767.23766
295.807	65686.77179
296.006	65622.56012
296.205	65656.94159
296.404	65521.93959
296.603	65675.295
296.802	65560.77505
297.001	65684.47607
297.2	65682.18053
297.398	65700.54995
297.597	65588.21905
297.796	65725.82704
297.995	65709.73906
298.194	65606.52928
298.392	65670.70556
298.591	65663.82276
298.79	65707.44151
298.988	65675.295
299.187	65670.70556
299.386	65640.89186
299.585	65659.23513
299.783	65643.18413
299.982	65579.06821
300.18	65677.58999
300.379	65666.11684
300.578	65668.41111
300.776	65725.82704
300.975	65631.72455
301.173	65574.49385
301.372	65659.23513
301.57	65677.58999
301.769	65682.18053
301.967	65611.10863
302.166	65659.23513
302.364	65702.84695
302.562	65654.64823
302.761	65608.81886
302.959	65663.82276
303.157	65617.97899
303.356	65691.36378
303.554	65599.66161
303.752	65659.23513
303.951	65624.85096
304.149	65537.9245
304.347	65631.72455
304.546	65601.95065
304.744	65638.59976
304.942	65622.56012
305.14	65691.36378
305.338	65716.63281
305.536	65668.41111
305.735	65670.70556
305.933	65677.58999
306.131	65686.77179
306.329	65599.66161
306.527	65716.63281
306.725	65663.82276
306.923	65611.10863
307.121	65553.91803
307.319	65689.06769
307.517	65691.36378
307.715	65640.89186
307.913	65531.07277
308.111	65617.97899
308.309	65634.01611
308.507	65666.11684
308.705	65654.64823
308.903	65709.73906
309.1	65590.5072
309.298	65595.08405
309.496	65636.30784
309.694	65673.00019
309.892	65698.25314
310.089	65705.14414
310.287	65654.64823
310.485	65684.47607
310.683	65640.89186
310.88	65659.23513
311.078	65666.11684
311.276	65601.95065
311.473	65652.35505
311.671	65643.18413
311.869	65599.66161
312.066	65650.06205
312.264	65647.76923
312.461	65569.92021
312.659	65590.5072
312.856	65601.95065
313.054	65679.88517
313.251	65675.295
313.449	65588.21905
313.646	65656.94159
313.844	65700.54995
314.041	65656.94159
314.239	65585.93107
314.436	65576.78094
314.634	65544.77781
314.831	65601.95065
315.028	65723.52821
315.226	65656.94159
315.423	65585.93107
315.62	65691.36378
315.817	65638.59976
316.015	65531.07277
316.212	65686.77179
316.409	65606.52928
316.606	65622.56012
316.804	65668.41111
317.001	65702.84695
317.198	65604.23988
317.395	65604.23988
317.592	65604.23988
317.789	65654.64823
317.987	65631.72455
318.184	65684.47607
318.381	65721.22956
318.578	65606.52928
318.775	65716.63281
318.972	65712.03679
319.169	65709.73906
319.366	65601.95065
319.563	65638.59976
319.76	65677.58999
319.957	65668.41111
320.154	65682.18053
320.351	65599.66161
320.547	65622.56012
320.744	65661.52885
320.941	65540.20876
321.138	65654.64823
321.335	65640.89186
321.532	65689.06769
321.728	65608.81886
321.925	65707.44151
322.122	65528.78921
322.319	65755.72869
322.515	65599.66161
322.712	65613.39857
322.909	65725.82704
323.105	65730.42527
323.302	65590.5072
323.499	65569.92021
323.695	65617.97899
323.892	65647.76923
324.089	65604.23988
324.285	65670.70556
324.482	65679.88517
324.678	65730.42527
324.875	65684.47607
325.071	65634.01611
325.268	65638.59976
325.464	65663.82276
325.661	65643.18413
325.857	65656.94159
326.054	65691.36378
326.25	65617.97899
326.446	65615.68869
326.643	65636.30784
326.839	65659.23513
327.035	65739.62393
327.232	65590.5072
327.428	65735.02423
327.624	65728.12606
327.821	65645.47659
328.017	65705.14414
328.213	65682.18053
328.409	65645.47659
328.606	65624.85096
328.802	65627.14198
328.998	65661.52885
329.194	65723.52821
329.39	65601.95065
329.586	65645.47659
329.783	65606.52928
329.979	65634.01611
330.175	65663.82276
330.371	65645.47659
330.567	65661.52885
330.763	65634.01611
330.959	65698.25314
331.155	65670.70556
331.351	65679.88517
331.547	65615.68869
331.743	65755.72869
331.939	65652.35505
332.135	65679.88517
332.33	65579.06821
332.526	65643.18413
332.722	65627.14198
332.918	65595.08405
333.114	65698.25314
333.31	65542.4932
333.506	65569.92021
333.701	65647.76923
333.897	65758.03012
334.093	65604.23988
334.289	65709.73906
334.484	65544.77781
334.68	65560.77505
334.876	65588.21905
335.071	65654.64823
335.267	65583.64327
335.463	65666.11684
335.658	65663.82276
335.854	65774.14527
336.049	65650.06205
336.245	65679.88517
336.441	65675.295
336.636	65627.14198
336.832	65608.81886
337.027	65526.50583
337.223	65714.33471
337.418	65572.20694
337.613	65705.14414
337.809	65622.56012
338.004	65698.25314
338.2	65640.89186
338.395	65691.36378
338.591	65597.37274
338.786	65705.14414
338.981	65700.54995
339.177	65709.73906
339.372	65636.30784
339.567	65576.78094
339.762	65608.81886
339.958	65776.44818
340.153	65735.02423
340.348	65106.99652
340.543	65656.94159
340.739	65700.54995
340.934	65670.70556
341.129	65617.97899
341.324	65617.97899
341.519	65725.82704
341.714	65790.26955
341.909	65705.14414
342.104	65645.47659
342.299	65654.64823
342.495	65677.58999
342.69	65695.9565
342.885	65682.18053
343.08	65396.63988
343.275	65563.06107
343.469	65666.11684
343.664	65611.10863
343.859	65654.64823
344.054	65716.63281
344.249	65698.25314
344.444	65643.18413
344.639	65677.58999
344.834	65702.84695
345.029	65650.06205
345.223	65624.85096
345.418	65705.14414
345.613	65636.30784
345.808	65654.64823
346.003	65659.23513
346.197	65654.64823
346.392	65638.59976
346.587	65542.4932
346.781	65668.41111
346.976	65627.14198
347.171	65572.20694
347.365	65677.58999
347.56	65675.295
347.755	65597.37274
347.949	65673.00019
348.144	65702.84695
348.338	65640.89186
348.533	65636.30784
348.727	65686.77179
348.922	65604.23988
349.116	65718.93109
349.311	65647.76923
349.505	65718.93109
349.7	65702.84695
349.894	65691.36378
350.089	65627.14198
350.283	65661.52885
350.477	65645.47659
350.672	65663.82276
350.866	65585.93107
351.06	65640.89186
351.255	65645.47659
351.449	65650.06205
351.643	65650.06205
351.837	65606.52928
352.032	65746.52486
352.226	65695.9565
352.42	65700.54995
352.614	65583.64327
352.809	65686.77179
353.003	65643.18413
353.197	65629.43317
353.391	65666.11684
353.585	65631.72455
353.779	65728.12606
353.973	65583.64327
354.167	65620.26946
354.361	65707.44151
354.555	65595.08405
354.749	65663.82276
354.943	65686.77179
355.137	65622.56012
355.331	65670.70556
355.525	65684.47607
355.719	65622.56012
355.913	65661.52885
356.107	65634.01611
356.301	65663.82276
356.495	65659.23513
356.689	65650.06205
356.883	65622.56012
357.076	65718.93109
357.27	65588.21905
357.464	65684.47607
357.658	65585.93107
357.852	65656.94159
358.045	65624.85096
358.239	65698.25314
358.433	65673.00019
358.626	65684.47607
358.82	65656.94159
359.014	65636.30784
359.207	65645.47659
359.401	65737.32399
359.595	65624.85096
359.788	65677.58999
359.982	65650.06205
360.175	65615.68869
360.369	65673.00019
360.563	65645.47659
360.756	65656.94159
360.95	65634.01611
361.143	65744.22436
361.336	65794.87816
361.53	65700.54995
361.723	65686.77179
361.917	65629.43317
362.11	65689.06769
362.304	65663.82276
362.497	65654.64823
362.69	65528.78921
362.884	65638.59976
363.077	65677.58999
363.27	65670.70556
363.464	65645.47659
363.657	65686.77179
363.85	65604.23988
364.043	65673.00019
364.237	65645.47659
364.43	65617.97899
364.623	65613.39857
364.816	65702.84695
365.009	65592.79554
365.202	65677.58999
365.396	65576.78094
365.589	65638.59976
365.782	65638.59976
365.975	65718.93109
366.168	65608.81886
366.361	65572.20694
366.554	65654.64823
366.747	65686.77179
366.94	65620.26946
367.133	65659.23513
367.326	65670.70556
367.519	65673.00019
367.712	65781.05455
367.905	65668.41111
368.098	65693.66005
368.291	65551.63271
368.484	65654.64823
368.676	65624.85096
368.869	65725.82704
369.062	65666.11684
369.255	65650.06205
369.448	65613.39857
369.64	65638.59976
369.833	65677.58999
370.026	65604.23988
370.219	65721.22956
370.411	65549.34757
370.604	65735.02423
370.797	65638.59976
370.989	65611.10863
371.182	65728.12606
371.375	65599.66161
371.567	65629.43317
371.76	65661.52885
371.952	65730.42527
372.145	65634.01611
372.338	65627.14198
372.53	65636.30784
372.723	65714.33471
372.915	65661.52885
373.108	65689.06769
373.3	65622.56012
373.493	65615.68869
373.685	65613.39857
373.877	65707.44151
374.07	65597.37274
374.262	65588.21905
374.455	65698.25314
374.647	65755.72869
374.839	65590.5072
375.032	65645.47659
375.224	65645.47659
375.416	65705.14414
375.609	65208.5192
375.801	65652.35505
375.993	65698.25314
376.185	65709.73906
376.378	65661.52885
376.57	65640.89186
376.762	65636.30784
376.954	65622.56012
377.146	65608.81886
377.338	65700.54995
377.53	65691.36378
377.723	65606.52928
377.915	65695.9565
378.107	65654.64823
378.299	65686.77179
378.491	65682.18053
378.683	65636.30784
378.875	65677.58999
379.067	65588.21905
379.259	65615.68869
379.451	65663.82276
379.643	65599.66161
379.835	65629.43317
380.027	65583.64327
380.219	65695.9565
380.41	65650.06205
380.602	65643.18413
380.794	65741.92405
380.986	65686.77179
381.178	65656.94159
381.37	65663.82276
381.561	65647.76923
381.753	65565.34727
381.945	65579.06821
382.137	65645.47659
382.328	65675.295
382.52	65686.77179
382.712	65679.88517
382.903	65583.64327
383.095	65666.11684
383.287	65712.03679
383.478	65624.85096
383.67	65684.47607
383.862	65643.18413
384.053	65636.30784
384.245	65682.18053
384.436	65613.39857
384.628	65640.89186
384.819	65668.41111
385.011	65608.81886
385.202	65661.52885
385.394	65682.18053
385.585	65556.20353
385.777	65677.58999
385.968	65718.93109
386.159	65654.64823
386.351	65647.76923
386.542	65620.26946
386.734	65572.20694
386.925	65673.00019
387.116	65631.72455
387.308	65636.30784
387.499	65698.25314
387.69	65613.39857
387.881	65572.20694
388.073	65647.76923
388.264	65645.47659
388.455	65732.72466
388.646	65599.66161
388.837	65617.97899
389.029	65640.89186
389.22	65666.11684
389.411	65686.77179
389.602	65643.18413
389.793	65677.58999
389.984	65656.94159
390.175	65627.14198
390.366	65613.39857
390.557	65709.73906
390.748	65650.06205
390.939	65725.82704
391.13	65673.00019
391.321	65636.30784
391.512	65668.41111
391.703	65654.64823
391.894	65682.18053
392.085	65705.14414
392.276	65695.9565
392.467	65709.73906
392.658	65691.36378
392.849	65645.47659
393.039	65675.295
393.23	65659.23513
393.421	65634.01611
393.612	65650.06205
393.803	65656.94159
393.993	65556.20353
394.184	65620.26946
394.375	65707.44151
394.566	65645.47659
394.756	65634.01611
394.947	65597.37274
395.138	65679.88517
395.328	65583.64327
395.519	65604.23988
395.709	65709.73906
395.9	65551.63271
396.091	65679.88517
396.281	65682.18053
396.472	65675.295
396.662	65700.54995
396.853	65691.36378
397.043	65673.00019
397.234	65677.58999
397.424	65631.72455
397.615	65631.72455
397.805	65640.89186
397.996	65730.42527
398.186	65595.08405
398.376	65576.78094
398.567	65689.06769
398.757	65659.23513
398.947	65790.26955
399.138	65606.52928
399.328	65595.08405
399.518	65712.03679
399.709	65741.92405
399.899	65654.64823
400.089	65691.36378
400.279	65645.47659
400.47	65652.35505
400.66	65650.06205
400.85	65579.06821
401.04	65615.68869
401.23	65590.5072
401.421	65629.43317
401.611	65673.00019
401.801	65613.39857
401.991	65645.47659
402.181	65663.82276
402.371	65631.72455
402.561	65583.64327
402.751	65666.11684
402.941	65617.97899
403.131	65576.78094
403.321	65686.77179
403.511	65636.30784
403.701	65606.52928
403.891	65645.47659
404.081	65643.18413
404.271	65693.66005
404.461	65574.49385
404.651	65702.84695
404.84	65624.85096
405.03	65615.68869
405.22	65691.36378
405.41	65679.88517
405.6	65592.79554
405.789	65597.37274
405.979	65581.35565
406.169	65721.22956
406.359	65654.64823
406.548	65705.14414
406.738	65705.14414
406.928	65579.06821
407.118	65613.39857
407.307	65599.66161
407.497	65647.76923
407.686	65590.5072
407.876	65698.25314
408.066	65677.58999
408.255	65686.77179
408.445	65679.88517
408.634	65606.52928
408.824	65627.14198
409.013	65670.70556
409.203	65592.79554
409.392	65627.14198
409.582	65631.72455
409.771	65725.82704
409.961	65684.47607
410.15	65613.39857
410.34	65624.85096
410.529	65700.54995
410.718	65640.89186
410.908	65512.80921
411.097	65700.54995
411.286	65684.47607
411.476	65714.33471
411.665	65675.295
411.854	65666.11684
412.044	65709.73906
412.233	65624.85096
412.422	65624.85096
412.611	65643.18413
412.8	65601.95065
412.99	65689.06769
413.179	65608.81886
413.368	65682.18053
413.557	65707.44151
413.746	65659.23513
413.935	65682.18053
414.124	65728.12606
414.313	65592.79554
414.503	65627.14198
414.692	65684.47607
414.881	65572.20694
415.07	65588.21905
415.259	65661.52885
415.448	65585.93107
415.637	65643.18413
415.826	65624.85096
416.015	65716.63281
416.203	65661.52885
416.392	65611.10863
416.581	65673.00019
416.77	65631.72455
416.959	65620.26946
417.148	65679.88517
417.337	65691.36378
417.525	65636.30784
417.714	65617.97899
417.903	65695.9565
418.092	65691.36378
418.281	65624.85096
418.469	65634.01611
418.658	65638.59976
418.847	65668.41111
419.035	65702.84695
419.224	65716.63281
419.413	65693.66005
419.601	65636.30784
419.79	65725.82704
419.979	65661.52885
420.167	65695.9565
420.356	65659.23513
420.544	65622.56012
420.733	65691.36378
420.921	65670.70556
421.11	65622.56012
421.299	65608.81886
421.487	65652.35505
421.675	65647.76923
421.864	65656.94159
422.052	65675.295
422.241	65556.20353
422.429	65668.41111
422.618	65659.23513
422.806	65636.30784
422.994	65668.41111
423.183	65613.39857
423.371	65668.41111
423.559	65627.14198
423.748	65599.66161
423.936	65673.00019
424.124	65758.03012
424.312	65693.66005
424.501	65636.30784
424.689	65659.23513
424.877	65656.94159
425.065	65654.64823
425.254	65673.00019
425.442	65510.52705
425.63	65579.06821
425.818	65569.92021
426.006	65659.23513
426.194	65565.34727
426.382	65583.64327
426.57	65615.68869
426.758	65631.72455
426.946	65668.41111
427.134	65606.52928
427.323	65684.47607
427.51	65654.64823
427.698	65640.89186
427.886	65611.10863
428.074	65574.49385
428.262	65755.72869
428.45	65645.47659
428.638	65638.59976
428.826	65613.39857
429.014	65686.77179
429.202	65760.33172
429.39	65723.52821
429.577	65583.64327
429.765	65585.93107
429.953	65581.35565
430.141	65656.94159
430.329	65613.39857
430.516	65682.18053
430.704	65521.93959
430.892	65670.70556
431.079	65744.22436
431.267	65585.93107
431.455	65721.22956
431.643	65574.49385
431.83	65622.56012
432.018	65611.10863
432.205	65670.70556
432.393	65718.93109
432.581	65654.64823
432.768	65585.93107
432.956	65590.5072
433.143	65631.72455
433.331	65604.23988
433.518	65670.70556
433.706	65652.35505
433.893	65544.77781
434.081	65677.58999
434.268	65560.77505
434.456	65693.66005
434.643	65682.18053
434.83	65595.08405
435.018	65595.08405
435.205	65677.58999
435.392	65677.58999
435.58	65751.12641
435.767	65592.79554
435.954	65647.76923
436.142	65585.93107
436.329	65686.77179
436.516	65668.41111
436.703	65611.10863
436.891	65572.20694
437.078	65597.37274
437.265	65592.79554
437.452	65601.95065
437.639	65636.30784
437.827	65617.97899
438.014	65599.66161
438.201	65652.35505
438.388	65595.08405
438.575	65645.47659
438.762	65647.76923
438.949	65661.52885
439.136	65606.52928
439.323	65553.91803
439.51	65654.64823
439.697	65576.78094
439.884	65581.35565
440.071	65606.52928
440.258	65579.06821
440.445	65590.5072
440.632	65396.63988
440.819	65599.66161
441.006	65528.78921
441.193	65613.39857
441.38	65576.78094
441.566	65638.59976
441.753	65647.76923
441.94	65581.35565
442.127	65645.47659
442.314	65565.34727
442.5	65542.4932
442.687	65558.4892
442.874	65585.93107
443.061	65592.79554
443.247	65576.78094
443.434	65487.71507
443.621	65654.64823
443.807	65599.66161
443.994	65476.3156
444.181	65613.39857
444.367	65643.18413
444.554	65558.4892
444.74	65583.64327
444.927	65613.39857
445.114	65556.20353
445.3	65430.7609
445.487	65508.24507
445.673	65524.22262
445.86	65553.91803
446.046	65579.06821
446.233	65542.4932
446.419	65574.49385
446.605	65469.47799
446.792	65474.03622
446.978	65613.39857
447.165	65549.34757
447.351	65574.49385
447.537	65588.21905
447.724	65597.37274
447.91	65483.15476
448.096	65508.24507
448.283	65444.42008
448.469	65547.0626
448.655	65531.07277
448.841	65478.59515
449.028	65517.37405
449.214	65503.68163
449.4	65480.87487
449.586	65501.40017
449.773	65474.03622
449.959	65501.40017
450.145	65387.54741
450.331	65517.37405
450.517	65547.0626
450.703	65426.20921
450.889	65519.65673
451.075	65464.92046
451.261	65389.82027
451.447	65383.0022
451.633	65462.64195
451.819	65451.25199
452.005	65380.72984
452.191	65448.97451
452.377	65430.7609
452.563	65408.00929
452.749	65412.55825
452.935	65387.54741
453.121	65348.9346
453.307	65378.45766
453.493	65321.70775
453.679	65362.55709
453.865	65333.04934
454.05	65305.83651
454.236	65351.2046
454.422	65417.10788
454.608	65373.91379
454.794	65394.36651
454.979	65403.46102
455.165	65371.64211
455.351	65312.63747
455.537	65317.17227
455.722	65242.43267
455.908	65323.97573
456.094	65260.53488
456.279	65240.17063
456.465	65206.2596
456.65	65301.30337
456.836	65269.58993
457.022	65258.27153
457.207	65274.11844
457.393	65226.60182
457.578	65278.64761
457.764	65181.41471
457.949	65253.74532
458.135	65192.70542
458.32	65328.5122
458.506	65280.91244
458.691	65244.69487
458.877	65224.34092
459.062	65289.97342
459.248	65296.77089
459.433	65172.38505
459.618	65149.82212
459.804	65246.95724
459.989	65154.33342
460.174	65149.82212
460.36	65176.89956
460.545	65190.44695
460.73	65206.2596
460.915	65194.96405
461.101	65204.00017
461.286	65172.38505
461.471	65190.44695
461.656	65303.56986
461.842	65149.82212
462.027	65179.15705
462.212	65149.82212
462.397	65131.78329
462.582	65163.35795
462.767	65061.97862
462.952	65258.27153
463.138	65143.05636
463.323	65066.47758
463.508	65163.35795
463.693	65122.7677
463.878	65154.33342
464.063	65064.22802
464.248	65100.23982
464.433	65100.23982
464.618	65100.23982
464.803	65095.73614
464.988	65097.9879
465.173	65030.50335
465.357	65070.97717
465.542	65075.47739
465.727	64978.85989
465.912	65028.25628
466.097	65084.47971
466.282	65084.47971
466.467	65028.25628
466.651	64983.3474
466.836	64983.3474
467.021	65140.80143
467.206	65034.99795
467.391	65093.48454
467.575	65055.23135
467.76	65046.23717
467.945	64960.916
468.129	64992.32424
468.314	64954.18956
468.499	65070.97717
468.683	64942.98186
468.868	65023.76261
469.053	65012.53115
469.237	64996.81359
469.422	64942.98186
469.606	64999.05849
469.791	65061.97862
469.975	64981.10357
470.16	65008.03965
470.344	64972.12979
470.529	65043.98901
470.713	64875.81504
470.898	65037.24548
471.082	64999.05849
471.267	65046.23717
471.451	65030.50335
471.636	65147.56671
471.82	65037.24548
472.004	64907.1427
472.189	65026.00937
472.373	65100.23982
472.557	65082.22889
472.742	65068.7273
472.926	65077.72773
473.11	65088.98181
473.295	64994.56884
473.479	65003.54876
473.663	65012.53115
473.847	65075.47739
474.031	65066.47758
474.216	65061.97862
474.4	65086.73068
474.584	65079.97823
474.768	65041.74101
474.952	64976.61637
475.136	64974.373
475.32	65106.99652
475.505	64994.56884
475.689	64940.74078
475.873	65014.77713
476.057	65005.79413
476.241	65052.98257
476.425	64978.85989
476.609	64942.98186
476.793	65019.26956
476.977	65088.98181
477.161	64983.3474
477.345	64965.40106
477.529	65082.22889
477.713	64927.29747
477.896	65064.22802
478.08	64909.38152
478.264	64976.61637
478.448	65001.30355
478.632	64931.77797
478.816	65140.80143
478.999	64947.46449
479.183	65030.50335
479.367	64999.05849
479.551	64835.57958
479.735	64938.49985
479.918	64974.373
480.102	64907.1427
480.286	64945.2231
480.469	65012.53115
480.653	64909.38152
480.837	64925.05745
481.02	64951.94771
481.204	64911.62048
481.388	64882.52564
481.571	64784.23722
481.755	64920.57786
481.938	64911.62048
482.122	64947.46449
482.305	64851.22099
482.489	64768.62664
482.673	64813.24727
482.856	64887.00012
483.04	64880.28863
483.223	64871.34206
483.406	64891.4752
483.59	64887.00012
483.773	64831.11194
483.957	64911.62048
484.14	64802.08663
484.323	64766.39714
484.507	64808.78257
484.69	64842.28215
484.874	64913.8596
485.057	64860.1622
485.24	64815.47984
485.423	64951.94771
485.607	64793.16075
485.79	64851.22099
485.973	64806.55044
486.156	64741.88221
486.34	64757.48059
486.523	64739.65444
486.706	64799.85494
486.889	64871.34206
487.072	64766.39714
487.256	64746.33817
487.439	64806.55044
487.622	64748.56636
487.805	64802.08663
487.988	64773.08608
488.171	64741.88221
488.354	64730.74483
488.537	64795.392
488.72	64748.56636
488.903	64724.06414
489.086	64777.5461
489.269	64737.42683
489.452	64732.97202
489.635	64681.783
489.818	64572.97765
490.001	64811.01485
490.184	64770.85629
490.367	64768.62664
490.55	64672.88826
490.732	64566.32698
490.915	64710.70662
491.098	64672.88826
491.281	64797.6234
491.464	64724.06414
491.647	64750.7947
491.829	64757.48059
492.012	64666.2187
492.195	64612.9079
492.378	64701.80448
492.56	64557.46135
492.743	64579.62957
492.926	64550.81357
493.108	64690.68001
493.291	64670.66493
493.474	64533.0922
493.656	64548.59792
493.839	64493.2511
494.022	64559.67755
494.204	64488.82703
494.387	64515.3796
494.569	64652.8834
494.752	64522.0208
494.934	64546.3824
495.117	64533.0922
495.299	64570.76062
495.482	64502.10087
495.664	64455.66371
495.847	64537.52172
496.029	64577.41212
496.212	64325.51179
496.394	64548.59792
496.576	64502.10087
496.759	64595.15556
496.941	64418.11509
497.123	64263.90377
497.306	64570.76062
497.488	64484.4035
497.67	64553.02936
497.853	64546.3824
498.035	64420.32276
498.217	64354.15
498.4	64424.73851
498.582	64575.19482
498.764	64499.88822
498.946	64429.15479
499.128	64442.40684
499.311	64471.13615
499.493	64564.11036
499.675	64431.36314
499.857	64393.83941
500.039	64356.35385
500.221	64393.83941
500.403	64373.98938
500.585	64272.69875
500.767	64334.32121
500.949	64373.98938
501.132	64398.25198
501.314	64431.36314
501.496	64290.29486
501.678	64504.31365
501.859	64360.76195
502.041	64351.94628
502.223	64351.94628
502.405	64385.01586
502.587	64288.09489
502.769	64312.30156
502.951	64310.10031
503.133	64338.72669
503.315	64393.83941
503.497	64367.37508
503.678	64358.55784
503.86	64446.82526
504.042	64241.92525
504.224	64272.69875
504.406	64332.11866
504.587	64387.22155
504.769	64340.92963
504.951	64316.70446
505.132	64424.73851
505.314	64358.55784
505.496	64321.10787
505.678	64387.22155
505.859	64369.57972
506.041	64321.10787
506.222	64336.52388
506.404	64332.11866
506.586	64345.3359
506.767	64281.49578
506.949	64389.42737
507.13	64338.72669
507.312	64347.53923
507.493	64206.78601
507.675	64323.30976
507.856	64321.10787
508.038	64411.49286
508.219	64389.42737
508.401	64387.22155
508.582	64292.49495
508.764	64329.91624
508.945	64296.89551
509.126	64385.01586
509.308	64367.37508
509.489	64351.94628
509.671	64409.28571
509.852	64316.70446
510.033	64409.28571
510.214	64382.8103
510.396	64422.53057
510.577	64488.82703
510.758	64305.6982
510.94	64316.70446
511.121	64351.94628
511.302	64354.15
511.483	64389.42737
511.664	64325.51179
511.846	64437.98896
512.027	64356.35385
512.208	64420.32276
512.389	64407.0787
512.57	64323.30976
512.751	64360.76195
512.932	64343.1327
513.113	64252.91292
513.294	64376.19442
513.476	64362.96619
513.657	64396.04563
513.838	64471.13615
514.019	64332.11866
514.2	64411.49286
514.381	64356.35385
514.561	64336.52388
514.742	64433.57161
514.923	64365.17057
515.104	64347.53923
515.285	64391.63333
515.466	64422.53057
515.647	64460.08373
515.828	64314.50295
516.009	64358.55784
516.189	64433.57161
516.37	64468.9254
516.551	64442.40684
516.732	64442.40684
516.913	64407.0787
517.093	64435.78022
517.274	64442.40684
517.455	64283.69535
517.636	64356.35385
517.816	64347.53923
517.997	64371.78448
518.178	64378.39958
518.358	64477.76922
518.539	64404.87182
518.72	64387.22155
518.9	64376.19442
519.081	64389.42737
519.261	64338.72669
519.442	64255.11084
519.622	64371.78448
519.803	64376.19442
519.984	64325.51179
520.164	64402.66508
520.345	64382.8103
520.525	64369.57972
520.705	64424.73851
520.886	64321.10787
521.066	64535.30689
521.247	64391.63333
521.427	64396.04563
521.608	64237.53108
521.788	64422.53057
521.968	64224.35159
522.149	64440.19783
522.329	64362.96619
522.509	64471.13615
522.69	64422.53057
522.87	64451.24422
523.05	64477.76922
523.231	64457.87365
523.411	64418.11509
523.591	64365.17057
523.771	64446.82526
523.951	64360.76195
524.132	64343.1327
524.312	64393.83941
524.492	64422.53057
524.672	64367.37508
524.852	64343.1327
525.032	64404.87182
525.213	64371.78448
525.393	64303.49733
525.573	64479.98051
525.753	64332.11866
525.933	64358.55784
526.113	64365.17057
526.293	64468.9254
526.473	64437.98896
526.653	64292.49495
526.833	64429.15479
527.013	64486.6152
527.193	64402.66508
527.373	64418.11509
527.553	64391.63333
527.733	64360.76195
527.913	64449.03467
528.092	64588.50073
528.272	64373.98938
528.452	64431.36314
528.632	64510.95281
528.812	64415.90754
528.992	64365.17057
529.171	64398.25198
529.351	64493.2511
529.531	64486.6152
529.711	64382.8103
529.89	64484.4035
530.07	64376.19442
530.25	64290.29486
530.43	64294.69517
530.609	64418.11509
530.789	64400.45846
530.969	64389.42737
531.148	64457.87365
531.328	64495.46334
531.507	64449.03467
531.687	64362.96619
531.867	64488.82703
532.046	64347.53923
532.226	64453.45389
532.405	64391.63333
532.585	64413.70013
532.764	64435.78022
532.944	64290.29486
533.123	64418.11509
533.303	64468.9254
533.482	64292.49495
533.662	64444.61599
533.841	64387.22155
534.021	64351.94628
534.2	64440.19783
534.379	64484.4035
534.559	64422.53057
534.738	64382.8103
534.917	64524.23481
535.097	64413.70013
535.276	64409.28571
535.455	64367.37508
535.635	64502.10087
535.814	64446.82526
535.993	64378.39958
536.172	64510.95281
536.352	64473.34704
536.531	64493.2511
536.71	64400.45846
536.889	64420.32276
537.068	64460.08373
537.248	64479.98051
537.427	64343.1327
537.606	64413.70013
537.785	64418.11509
537.964	64433.57161
538.143	64497.67571
538.322	64449.03467
538.501	64415.90754
538.68	64471.13615
538.859	64367.37508
539.038	64506.52657
539.217	64506.52657
539.396	64575.19482
539.575	64431.36314
539.754	64413.70013
539.933	64378.39958
540.112	64599.59281
540.291	64437.98896
540.47	64440.19783
540.649	64442.40684
540.828	64599.59281
541.007	64409.28571
541.186	64517.5932
541.364	64418.11509
541.543	64499.88822
541.722	64455.66371
541.901	64493.2511
542.08	64343.1327
542.258	64380.60487
542.437	64524.23481
542.616	64389.42737
542.795	64544.16703
542.973	64499.88822
543.152	64508.73962
543.331	64486.6152
543.509	64533.0922
543.688	64413.70013
543.867	64510.95281
544.045	64524.23481
544.224	64373.98938
544.402	64114.69801
544.581	64477.76922
544.76	64575.19482
544.938	64468.9254
545.117	64437.98896
545.295	64486.6152
545.474	64484.4035
545.652	64559.67755
545.831	64510.95281
546.009	64380.60487
546.188	64484.4035
546.366	64497.67571
546.544	64475.55806
546.723	64471.13615
546.901	64464.5043
547.08	64407.0787
547.258	64517.5932
547.436	64515.3796
547.615	64564.11036
547.793	64491.039
547.971	64473.34704
548.15	64488.82703
548.328	64435.78022
548.506	64373.98938
548.684	64347.53923
548.863	64508.73962
549.041	64539.73669
549.219	64597.37412
549.397	64460.08373
549.576	64510.95281
549.754	64468.9254
549.932	64495.46334
550.11	64537.52172
550.288	64572.97765
550.466	64659.55041
550.644	64435.78022
550.822	64533.0922
551.001	64572.97765
551.179	64626.22801
551.357	64561.89389
551.535	64504.31365
551.713	64564.11036
551.891	64568.54373
552.069	64612.9079
552.247	64572.97765
552.425	64608.46898
552.603	64608.46898
552.781	64586.28273
552.958	64617.34738
553.136	64595.15556
553.314	64710.70662
553.492	64666.2187
553.67	64692.90462
553.848	64706.25526
554.026	64804.31846
554.204	64786.46788
554.381	64726.29089
554.559	64788.69869
554.737	64862.39787
554.915	64795.392
555.092	64753.02319
555.27	64826.64489
555.448	64788.69869
555.626	64840.04782
555.803	64927.29747
555.981	64755.25182
556.159	64884.76281
556.336	64893.71296
556.514	64956.43155
556.692	64911.62048
556.869	64884.76281
557.047	64880.28863
557.224	64911.62048
557.402	64927.29747
557.58	64851.22099
557.757	64965.40106
557.935	65064.22802
558.112	64969.88672
558.29	64958.6737
558.467	65064.22802
558.645	65066.47758
558.822	65079.97823
559	65052.98257
559.177	65028.25628
559.354	65003.54876
559.532	65010.28532
559.709	65041.74101
559.887	65003.54876
560.064	65104.74413
560.241	64981.10357
560.419	65001.30355
560.596	64981.10357
560.773	64974.373
560.951	64956.43155
561.128	64840.04782
561.305	65068.7273
561.482	65010.28532
561.66	64958.6737
561.837	64954.18956
562.014	65003.54876
562.191	65077.72773
562.368	65023.76261
562.546	64956.43155
562.723	65057.48028
562.9	65026.00937
563.077	64951.94771
563.254	65048.48548
563.431	65017.02327
563.608	64929.53764
563.785	65046.23717
563.962	64985.59138
564.139	65075.47739
564.317	64958.6737
564.494	65091.2331
564.671	64893.71296
564.848	64990.0798
565.025	65041.74101
565.201	65068.7273
565.378	64999.05849
565.555	64996.81359
565.732	65032.75057
565.909	65041.74101
566.086	65023.76261
566.263	65073.2272
566.44	65028.25628
566.617	65068.7273
566.794	64990.0798
566.97	65052.98257
567.147	65122.7677
567.324	65026.00937
567.501	65086.73068
567.678	65023.76261
567.854	65046.23717
568.031	65156.58931
568.208	65026.00937
568.384	65091.2331
568.561	65066.47758
568.738	65091.2331
568.915	65068.7273
569.091	65143.05636
569.268	65102.4919
569.444	65152.07769
569.621	65122.7677
569.798	65149.82212
569.974	65093.48454
570.151	65088.98181
570.327	65104.74413
570.504	65077.72773
570.681	65172.38505
570.857	65140.80143
571.034	65149.82212
571.21	65100.23982
571.387	65246.95724
571.563	65219.81962
571.739	65057.48028
571.916	65269.58993
572.092	65194.96405
572.269	65143.05636
572.445	65156.58931
572.622	65204.00017
572.798	65143.05636
572.974	65197.22283
573.151	65253.74532
573.327	65194.96405
573.503	65093.48454
573.68	65256.00834
573.856	65249.21977
574.032	65253.74532
574.208	65134.03759
574.385	65158.84537
574.561	65271.8541
574.737	65244.69487
574.913	65140.80143
575.089	65244.69487
575.266	65249.21977
575.442	65260.53488
575.618	65100.23982
575.794	65222.08019
575.97	65231.12411
576.146	65161.10158
576.322	65226.60182
576.499	65118.26086
576.675	65136.29204
576.851	65138.54666
577.027	65061.97862
577.203	65194.96405
577.379	65235.64704
577.555	65190.44695
577.731	65145.31145
577.907	64819.94542
578.083	65100.23982
578.259	65172.38505
578.435	65147.56671
578.611	65028.25628
578.786	65043.98901
578.962	65095.73614
579.138	65208.5192
579.314	65100.23982
579.49	65172.38505
579.666	65075.47739
579.842	65152.07769
580.017	65152.07769
580.193	65138.54666
580.369	65086.73068
580.545	65111.50178
580.72	65017.02327
580.896	65147.56671
581.072	65037.24548
581.248	65084.47971
581.423	65012.53115
581.599	65116.00767
581.775	65075.47739
581.95	65077.72773
582.126	65104.74413
582.302	65008.03965
582.477	65070.97717
582.653	65131.78329
582.829	65116.00767
583.004	65206.2596
583.18	65102.4919
583.355	65140.80143
583.531	65070.97717
583.706	65048.48548
583.882	65140.80143
584.057	65224.34092
584.233	65086.73068
584.408	64987.83551
584.584	65106.99652
584.759	65170.12803
584.935	65170.12803
585.11	65156.58931
585.285	65190.44695
585.461	65262.7984
585.636	65163.35795
585.812	65181.41471
585.987	65249.21977
586.162	65235.64704
586.338	65176.89956
586.513	65271.8541
586.688	65333.04934
586.863	65210.77896
587.039	65267.32592
587.214	65242.43267
587.389	65237.90875
587.564	65278.64761
587.74	65235.64704
587.915	65403.46102
588.09	65348.9346
588.265	65285.4426
588.44	65362.55709
588.615	65346.66478
588.791	65335.31816
588.966	65389.82027
589.141	65408.00929
589.316	65328.5122
589.491	65342.12563
589.666	65312.63747
589.841	65276.38294
590.016	65387.54741
590.191	65303.56986
590.366	65435.31327
590.541	65453.52963
590.716	65403.46102
590.891	65380.72984
591.066	65476.3156
591.241	65451.25199
591.416	65469.47799
591.591	65458.08545
591.766	65458.08545
591.941	65572.20694
592.116	65585.93107
592.29	65467.19914
592.465	65515.09154
592.64	65629.43317
592.815	65563.06107
592.99	65613.39857
593.165	65572.20694
593.339	65595.08405
593.514	65565.34727
593.689	65487.71507
593.864	65569.92021
594.038	65597.37274
594.213	65489.99548
594.388	65572.20694
594.562	65549.34757
594.737	65487.71507
594.912	65567.63365
595.086	65624.85096
595.261	65576.78094
595.436	65505.96326
595.61	65526.50583
595.785	65519.65673
595.959	65515.09154
596.134	65556.20353
596.309	65553.91803
596.483	65560.77505
596.658	65549.34757
596.832	65576.78094
597.007	65451.25199
597.181	65608.81886
597.356	65524.22262
597.53	65613.39857
597.704	65585.93107
597.879	65544.77781
598.053	65549.34757
598.228	65462.64195
598.402	65460.36361
598.576	65560.77505
598.751	65476.3156
598.925	65535.64042
599.1	65535.64042
599.274	65581.35565
599.448	65547.0626
599.622	65453.52963
599.797	65531.07277
599.971	65531.07277
600.145	65408.00929
600.32	65503.68163
600.494	65528.78921
600.668	65480.87487
600.842	65469.47799
601.016	65579.06821
601.191	65480.87487
601.365	65271.8541
601.539	65501.40017
601.713	65535.64042
601.887	65444.42008
602.061	65560.77505
602.235	65483.15476
602.409	65553.91803
602.583	65492.27607
602.758	65615.68869
602.932	65553.91803
603.106	65617.97899
603.28	65567.63365
603.454	65521.93959
603.628	65476.3156
603.802	65572.20694
603.976	65556.20353
604.149	65537.9245
604.323	65492.27607
604.497	65569.92021
604.671	65487.71507
604.845	65521.93959
605.019	65560.77505
605.193	65572.20694
605.367	65485.43483
605.541	65517.37405
605.714	65462.64195
605.888	65471.75702
606.062	65542.4932
606.236	65645.47659
606.41	65428.48497
606.583	65553.91803
606.757	65576.78094
606.931	65521.93959
607.105	65556.20353
607.278	65560.77505
607.452	65606.52928
607.626	65471.75702
607.799	65556.20353
607.973	65574.49385
608.147	65515.09154
608.32	65572.20694
608.494	65526.50583
608.668	65553.91803
608.841	65453.52963
609.015	65464.92046
609.188	65517.37405
609.362	65627.14198
609.535	65540.20876
609.709	65565.34727
609.882	65528.78921
610.056	65501.40017
610.229	65531.07277
610.403	65533.35651
610.576	4701.61083
610.75	65501.40017
610.923	4866.07269
611.097	65588.21905
611.27	4636.04463
611.443	65521.93959
611.617	4924.56563
611.79	65627.14198
611.963	4860.84182
612.137	65531.07277
612.31	4943.94178
612.483	65553.91803
612.657	4936.81851
612.83	65595.08405
613.003	4971.0832
613.177	65553.91803
613.35	5203.65429
613.523	65531.07277
613.696	5410.69357
613.869	65645.47659
614.043	5159.81635
614.216	65531.07277
614.389	5314.36699
614.562	65492.27607
614.735	5615.48444
614.908	65556.20353
615.082	5621.87676
615.255	65535.64042
615.428	5555.2544
615.601	65576.78094
615.774	5640.29106
615.947	65503.68163
616.12	5746.42251
616.293	65444.42008
616.466	5980.26505
616.639	65476.3156
616.812	5940.61417
616.985	65426.20921
617.158	6040.3853
617.331	65524.22262
617.504	6402.87226
617.677	65581.35565
617.85	6483.67402
618.022	65549.34757
618.195	6586.91752
618.368	65467.19914
618.541	6531.74179
618.714	65533.35651
618.887	6703.81828
619.059	65487.71507
619.232	6905.90089
619.405	65373.91379
619.578	7072.43358
619.751	65512.80921
619.923	7146.80454
620.096	65421.6582
620.269	7443.34248
620.441	65492.27607
620.614	7658.01712
620.787	65460.36361
620.96	7740.30653
621.132	65378.45766
621.305	7999.50014
621.477	65408.00929
621.65	8104.46712
621.823	65508.24507
621.995	8084.07788
622.168	65412.55825
622.34	8339.79322
622.513	65426.20921
622.685	8530.28896
622.858	65403.46102
623.03	8641.89634
623.203	65489.99548
623.375	8813.04245
623.548	65483.15476
623.72	9108.36552
623.893	50362.69233
624.065	9474.0316
624.238	9755.34203
624.41	9875.80883
624.582	9879.293
624.755	10214.47044
624.927	10205.80536
625.1	10466.87564
625.272	10545.81142
625.444	10559.66314
625.617	10974.98179
625.789	10844.65342
625.961	11188.06825
626.133	11096.19012
626.306	11604.36215
626.478	11688.99242
626.65	11695.26711
626.822	12004.80445
626.995	12128.31753
627.167	12238.43721
627.339	12425.78507
627.511	12429.73144
627.683	12637.66698
627.855	12779.61871
628.027	12885.27875
628.2	12904.16549
628.372	13153.06396
628.544	12868.85706
628.716	13447.70319
628.888	13305.93766
629.06	13313.1391
629.232	13341.30998
629.404	13401.53235
629.576	13596.23536
629.748	13463.84675
629.92	13456.83668
630.092	13500.04142
630.264	13799.27991
630.436	14031.95806
630.608	13899.22328
630.78	13912.86407
630.952	13723.75623
631.124	13749.62918
631.295	13643.06367
631.467	13796.19264
631.639	13447.8279
631.811	13779.53707
631.983	13658.16085
632.155	13607.68912
632.326	13409.36809
632.498	13293.8289
632.67	12988.13066
632.842	13417.67737
633.014	12830.54547
633.185	12747.69809
633.357	12692.87619
633.529	12658.82606
633.7	12543.50185
633.872	12370.76509
634.044	12270.21831
634.215	12112.76152
634.387	12092.79189
634.559	12053.11496
634.73	11528.78841
634.902	11645.00428
635.074	11335.60209
635.245	11437.33821
635.417	11059.12436
635.588	11162.351
635.76	11049.70941
635.931	10977.65017
636.103	10628.72473
636.274	10441.70238
636.446	10501.93448
636.617	10260.92537
636.789	10255.25575
636.96	10073.1939
637.132	10053.36055
637.303	10096.3835
637.474	9721.28012
637.646	9899.37498
637.817	9708.4116
637.989	9533.74824
638.16	9600.9092
638.331	9543.07018
638.503	9471.23458
638.674	9402.23416
638.845	9418.12724
639.017	9341.54416
639.188	9249.09064
639.359	9150.30962
639.53	9257.59784
639.702	9273.78698
639.873	9240.49999
640.044	9189.98177
640.215	9044.10986
640.387	9159.87386
640.558	8950.23265
640.729	8959.33865
640.9	9105.70739
641.071	8977.94566
641.242	8801.01132
641.413	8858.73131
641.585	8694.38669
641.756	8754.89274
641.927	8706.59618
642.098	8843.36357
642.269	8766.4756
642.44	8596.36228
642.611	8313.76602
642.782	8532.47666
642.953	8540.66339
643.124	8478.78888
643.295	8423.83912
643.466	8263.62854
643.637	8228.21413
643.808	8502.71761
643.979	8416.56047
644.15	8169.41167
644.32	8233.84358
644.491	8084.39106
644.662	8157.39851
644.833	8171.94305
645.004	8208.58972
645.175	8179.00212
645.346	8010.49673
645.516	8186.31311
645.687	7831.57338
645.858	8078.30053
646.029	7804.17968
646.199	8124.2166
646.37	8049.27825
646.541	7890.61297
646.712	7886.85109
646.882	7950.58509
647.053	7838.87626
647.224	7771.6797
647.394	7630.69343
647.565	7693.86915
647.736	7625.27944
647.906	7667.45744
648.077	7641.29655
648.248	7547.85495
648.418	7534.74655
648.589	7470.68609
648.759	7346.82215
648.93	7604.06015
649.1	7351.49273
649.271	7428.3141
649.441	7226.8648
649.612	7495.80684
649.782	7317.73038
649.953	7269.24446
650.123	7124.92038
650.294	7128.80215
650.464	7169.57957
650.635	6977.50965
650.805	7220.6128
650.975	7227.46723
651.146	7029.99015
651.316	7087.96504
651.487	6973.54676
651.657	7020.42012
651.827	6956.44235
651.998	6825.46346
652.168	6776.89578
652.338	7045.23219
652.508	6823.1206
652.679	6751.941
652.849	6703.04563
653.019	6757.55346
653.189	6708.37267
653.36	6652.95207
653.53	6786.89743
653.7	6580.08047
653.87	6588.00927
654.04	6713.02335
654.211	6769.76766
654.381	6767.83347
654.551	6511.68779
654.721	6563.12284
654.891	6542.5265
655.061	6392.18156
655.231	6511.58545
655.401	6557.7648
655.571	6578.51857
655.741	6553.67327
655.911	6465.1668
656.081	6363.2486
656.251	6368.86121
656.421	6207.34729
656.591	6172.43172
656.761	6365.19538
656.931	6215.45591
657.101	6281.09392
657.271	6409.66009
657.441	6360.50784
657.611	6323.64018
657.781	6055.57111
657.951	6216.90369
658.121	6255.32953
658.291	6344.38534
658.46	6206.93927
658.63	6170.83111
658.8	6102.34737
658.97	6015.50127
659.14	6122.24445
659.309	5873.45714
659.479	6064.59938
659.649	6155.8941
659.819	6026.99028
659.988	6102.64245
660.158	6179.39861
660.328	5977.22522
660.497	5940.93243
660.667	5825.20595
660.837	6185.08716
661.006	5791.51238
661.176	5932.44669
661.346	5837.40782
661.515	5978.36894
661.685	5866.57975
661.854	6033.51103
662.024	5548.08634
662.194	5850.77175
662.363	5731.17276
662.533	5861.08817
662.702	5807.69598
662.872	5804.51225
663.041	5597.17606
663.211	5861.43822
663.38	5709.9874
663.55	5873.5731
663.719	5681.05414
663.889	5798.06799
664.058	5674.91275
664.227	5718.36572
664.397	5686.30161
664.566	5663.57656
664.735	5766.80693
664.905	5742.32881
665.074	5590.94134
665.244	5697.74386
665.413	5636.81964
665.582	5662.69071
665.751	5570.00372
665.921	5711.42167
666.09	5612.11145
666.259	5693.13249
666.428	5865.18187
666.598	5730.76831
666.767	5516.24918
666.936	5566.29859
667.105	5400.4035
667.275	5639.12476
667.444	5575.44774
667.613	5566.03658
667.782	5466.79261
667.951	5514.43085
668.12	5660.46163
668.289	5506.05769
668.458	5552.40901
668.628	5626.34721
668.797	5485.84024
668.966	5499.76504
669.135	5282.90574
669.304	5576.79824
669.473	5646.37512
669.642	5690.10026
669.811	5575.7309
669.98	5615.87368
670.149	5496.9068
670.318	5631.62677
670.487	5783.77832
670.656	5867.99279
670.824	5647.84158
670.993	5716.4937
671.162	5620.42914
671.331	5528.99207
671.5	5494.50139
671.669	5515.04395
671.838	5492.09397
672.007	5718.66145
672.175	5618.01755
672.344	5874.78261
672.513	5512.85591
672.682	5657.52588
672.85	5648.83764
673.019	5649.69004
673.188	5551.03112
673.357	5417.24902
673.525	5434.68864
673.694	5784.83906
673.863	5476.71614
674.032	5636.56402
674.2	5614.69462
674.369	5721.1011
674.537	5700.89825
674.706	5637.14867
674.875	5595.32869
675.043	5691.43986
675.212	5624.56816
675.381	5593.87021
675.549	5687.51017
675.718	5718.0612
675.886	5666.02186
676.055	5654.96122
676.223	5738.0403
676.392	5446.8719
676.56	5585.50033
676.729	5601.00115
676.897	5713.83993
677.066	5574.92072
677.234	5451.74108
677.403	5644.84801
677.571	5509.83471
677.739	5486.35454
677.908	5435.39072
678.076	5336.1612
678.244	5452.39359
678.413	5467.79578
678.581	5456.68648
678.75	5353.56079
678.918	5419.68543
679.086	5485.7101
679.254	5499.54922
679.423	5221.71702
679.591	5321.61128
679.759	5411.42901
679.928	5081.38612
680.096	5292.38849
680.264	5246.55468
680.432	5197.4619
680.6	5191.98141
680.769	5296.02822
680.937	5176.72064
681.105	5137.88663
681.273	5063.6453
681.441	5029.94475
681.609	5033.86519
681.777	5110.19612
681.945	5160.24677
682.114	5174.18014
682.282	4943.04973
682.45	5024.44704
682.618	4876.72391
682.786	5080.28806
682.954	4799.8519
683.122	4989.46293
683.29	4687.66108
683.458	5029.92497
683.626	4901.73592
683.794	4762.70689
683.962	4689.52727
684.13	4753.35133
684.298	4720.94301
684.465	4718.69722
684.633	4684.70535
684.801	4683.96199
684.969	4726.99532
685.137	4487.88271
685.305	4578.03118
685.473	4330.05276
685.64	4476.55587
685.808	4515.06668
685.976	4352.8545
686.144	4441.83438
686.312	4123.4061
686.479	4333.28685
686.647	4336.58767
686.815	4241.42228
686.983	4282.56167
687.15	4015.11098
687.318	4190.91739
687.486	4167.23589
687.653	4068.24377
687.821	4083.3315
687.989	4137.10253
688.156	4076.62083
688.324	3988.89424
688.492	3910.87556
688.659	3940.29621
688.827	4110.52165
688.994	3874.89223
689.162	3887.91519
689.329	3682.35888
689.497	3814.47547
689.665	3696.59882
689.832	3818.82717
690	3578.77937
690.167	3420.90016
690.335	3495.51777
690.502	3614.94405
690.669	3435.47071
690.837	3692.84653
691.004	3467.33459
691.172	3336.92244
691.339	3325.17081
691.507	3340.61513
691.674	3152.18049
691.841	3279.56966
692.009	3333.28817
692.176	3461.1605
692.343	3222.59567
692.511	3329.18233
692.678	3055.27861
692.845	3119.80094
693.013	3223.31191
693.18	3045.35774
693.347	2977.02977
693.514	3135.09673
693.682	2824.47559
693.849	3094.91595
694.016	2817.75627
694.183	2961.33233
694.35	2945.10799
694.518	2845.21948
694.685	2879.38069
694.852	2919.3895
695.019	2817.79307
695.186	2716.97824
695.353	2545.57177
695.52	2798.33894
695.687	2632.03559
695.855	2590.6032
696.022	2639.50527
696.189	2576.41945
696.356	2481.3822
696.523	2679.34989
696.69	2438.66949
696.857	2640.67371
697.024	2421.86006
697.191	2476.95019
697.358	2366.33478
697.525	2294.48262
697.692	2432.58848
697.858	2411.69341
698.025	2208.47695
698.192	2245.28961
698.359	2365.34676
698.526	2308.25977
698.693	2065.46465
698.86	2145.61597
699.027	2161.656
699.193	2180.66949
699.36	2085.19738
699.527	2249.69658
699.694	2289.82728
699.861	2041.76564
700.027	1925.07143
700.194	1983.68086
700.361	1995.35208
700.528	2087.64685
700.694	1950.25085
700.861	2053.96197
701.028	1942.03547
701.195	1920.39048
701.361	1948.03679
701.528	2002.56227
701.694	1795.88732
701.861	1976.05103
702.028	1826.91434
702.194	1814.72521
702.361	1742.22587
702.528	1735.58399
702.694	1704.76955
702.861	1678.2608
703.027	1777.14452
703.194	1653.66363
703.36	1818.51264
703.527	1812.68837
703.693	1800.56994
703.86	1643.63299
704.026	1636.88297
704.193	1823.16853
704.359	1654.21907
704.526	1802.57489
