Data from Sun spf550_Subt2__1__10-00-17-110.txt Node

Date: Tue Sep 23 10:00:17 EDT 2025
User: brett
Spectrometer: USB4F03499
Trigger mode: 4
Integration Time (sec): 1.000000E-1
Scans to average: 1
Electric dark correction enabled: true
Nonlinearity correction enabled: true
Boxcar width: 0
XAxis mode: Wavelengths
Number of Pixels in Spectrum: 3648
>>>>>Begin Spectral Data<<<<<
0	7.11449
0.225	7.11449
0.449	7.11449
0.674	-92.0777
0.898	-50.53139
1.123	9.34436
1.347	4.77088
1.572	-2.10257
1.796	98.83687
2.021	75.77656
2.245	-27.2618
2.469	11.65421
2.694	-102.92103
2.918	-6.69
3.143	-61.8324
3.367	29.95997
3.591	-29.65063
3.815	91.74186
4.04	520.2559
4.264	759.88415
4.488	749.05955
4.712	750.05349
4.936	647.94792
5.161	765.26775
5.385	696.982
5.609	664.36498
5.833	826.11318
6.057	833.62902
6.281	774.15239
6.505	790.66097
6.729	734.52679
6.953	901.60156
7.177	724.39996
7.401	641.87891
7.625	735.53321
7.849	743.26858
8.073	712.37583
8.297	639.5404
8.521	815.2598
8.744	770.74663
8.968	796.00761
9.192	771.31241
9.416	783.08974
9.64	819.96897
9.863	819.90927
10.087	815.2598
10.311	826.31515
10.535	699.21848
10.758	781.01777
10.982	754.13301
11.205	690.06692
11.429	778.62386
11.653	764.93042
11.876	683.30383
12.1	752.49885
12.323	771.31241
12.547	841.6478
12.77	797.54595
12.994	782.19131
13.217	832.83664
13.441	803.84686
13.664	882.44773
13.887	848.65177
14.111	814.31551
14.334	682.27295
14.557	762.69461
14.781	802.45442
15.004	855.31106
15.227	746.49949
15.451	902.65524
15.674	763.82916
15.897	778.29041
16.12	774.04021
16.343	923.69264
16.567	971.25357
16.79	774.65876
17.013	811.87655
17.236	850.33179
17.459	843.09064
17.682	762.9711
17.905	949.99194
18.128	973.95493
18.351	841.04128
18.574	822.18379
18.797	913.14818
19.02	887.67317
19.243	1016.43734
19.466	808.85995
19.689	926.71455
19.911	889.33435
20.134	949.80401
20.357	914.13464
20.58	834.28711
20.803	1004.17506
21.025	834.10723
21.248	1001.73672
21.471	933.23285
21.694	980.83212
21.916	923.89065
22.139	1055.42308
22.362	932.92952
22.584	933.1298
22.807	1031.88108
23.029	842.96966
23.252	960.63245
23.475	1085.77606
23.697	1030.58694
23.92	1000.01219
24.142	1109.42379
24.365	1022.57753
24.587	1074.29727
24.809	1020.93339
25.032	1074.49261
25.254	1088.2889
25.477	1245.89164
25.699	1189.66669
25.921	1273.17562
26.144	1330.91351
26.366	1324.5393
26.588	1232.63913
26.81	1348.04287
27.033	1315.83411
27.255	1369.2605
27.477	1501.8763
27.699	1535.1352
27.921	1688.76965
28.144	1750.3892
28.366	1703.76146
28.588	1939.09633
28.81	1944.47144
29.032	2079.83071
29.254	2143.62945
29.476	2068.50995
29.698	2204.00635
29.92	2326.38334
30.142	2542.77982
30.364	2531.00587
30.586	2842.72063
30.808	2798.85928
31.029	3125.59244
31.251	3187.64099
31.473	3136.85309
31.695	3484.8585
31.917	3540.84948
32.139	3608.40451
32.36	3827.03696
32.582	4016.17704
32.804	4052.91142
33.026	4287.17844
33.247	4392.52565
33.469	4549.36516
33.691	4775.73517
33.912	5034.64579
34.134	5177.82657
34.355	5306.80988
34.577	5581.55124
34.798	5696.22162
35.02	5936.88637
35.242	5867.56037
35.463	6226.99169
35.684	6380.64774
35.906	6641.08359
36.127	6831.10793
36.349	6839.06941
36.57	7445.36175
36.792	7645.18264
37.013	7774.72274
37.234	7825.04538
37.456	8129.15292
37.677	8393.683
37.898	8608.64351
38.119	8908.10488
38.341	8996.52603
38.562	9299.28365
38.783	9666.37231
39.004	9831.79657
39.225	9836.18904
39.447	10387.62321
39.668	10958.06063
39.889	11241.60501
40.11	11667.76093
40.331	11811.29658
40.552	12056.36921
40.773	12582.7991
40.994	12895.70746
41.215	13019.45024
41.436	13725.61115
41.657	14073.77678
41.878	14438.52343
42.099	15041.89053
42.32	15553.0168
42.54	16100.80728
42.761	16458.49606
42.982	17080.33756
43.203	17505.81234
43.424	18236.68063
43.645	18301.42347
43.865	19052.52177
44.086	19269.67093
44.307	20170.98448
44.527	20727.82055
44.748	20975.54606
44.969	21545.98341
45.189	21350.07148
45.41	21949.45645
45.631	23255.66958
45.851	22930.91901
46.072	23409.75822
46.292	23819.46812
46.513	24464.15589
46.733	25429.62062
46.954	26121.87386
47.174	27594.16703
47.395	27316.99104
47.615	28458.46801
47.836	29243.10381
48.056	30459.17912
48.276	29948.05663
48.497	30010.23663
48.717	31424.14922
48.937	31479.04805
49.158	32565.56932
49.378	32350.53137
49.598	33192.95393
49.818	34548.21236
50.038	33931.5551
50.259	35321.2727
50.479	35910.56796
50.699	37570.22556
50.919	38907.29332
51.139	39664.71584
51.359	40759.81525
51.579	43142.9873
51.799	42427.24288
52.02	44415.44857
52.24	45998.17709
52.46	47381.22498
52.68	48906.25087
52.899	47795.01146
53.119	51073.34509
53.339	54483.4358
53.559	54066.00068
53.779	56512.58612
53.999	59440.96484
54.219	60834.87078
54.439	62814.07065
54.658	63460.80362
54.878	65637.11161
55.098	65676.09877
55.318	65614.20233
55.538	65586.73484
55.757	65637.11161
55.977	65648.57299
56.197	65577.58471
56.416	65650.86581
56.636	65648.57299
56.855	65671.50932
57.075	65586.73484
57.295	65682.98429
57.514	65724.33198
57.734	65621.07323
57.953	65637.11161
58.173	65627.94574
58.392	65664.62652
58.612	65673.80395
58.831	65678.39376
59.051	65616.49245
59.27	65550.15134
59.489	65632.52832
59.709	65646.28036
59.928	65666.92061
60.147	65650.86581
60.367	65676.09877
60.586	65598.17651
60.805	65657.74535
61.024	65639.40353
61.244	65719.73486
61.463	65653.15881
61.682	65630.23694
61.901	65618.78275
62.12	65676.09877
62.34	65639.40353
62.559	65643.9879
62.778	65520.4605
62.997	65664.62652
63.216	65708.24527
63.435	65701.35372
63.654	65550.15134
63.873	65662.33262
64.092	65648.57299
64.311	65589.02282
64.53	65627.94574
64.749	65646.28036
64.968	65634.81987
65.187	65731.22904
65.405	65648.57299
65.624	65643.9879
65.843	65623.36389
66.062	65632.52832
66.281	65595.88782
66.499	65719.73486
66.718	65701.35372
66.937	65618.78275
67.156	65634.81987
67.374	65673.80395
67.593	65536.44418
67.812	65643.9879
68.03	65655.45199
68.249	65703.65072
68.467	65673.80395
68.686	65607.33305
68.905	65595.88782
69.123	65765.73926
69.342	65639.40353
69.56	65669.21488
69.779	65742.72782
69.997	65616.49245
70.216	65657.74535
70.434	65632.52832
70.652	65602.75442
70.871	65648.57299
71.089	65676.09877
71.307	65717.43657
71.526	65625.65473
71.744	65682.98429
71.962	65676.09877
72.181	65680.68894
72.399	65673.80395
72.617	65630.23694
72.835	65614.20233
73.054	65682.98429
73.272	65660.0389
73.49	65671.50932
73.708	65724.33198
73.926	65715.13847
74.144	65710.54282
74.362	65625.65473
74.58	65660.0389
74.798	65657.74535
75.016	65641.69562
75.234	65673.80395
75.452	65648.57299
75.67	65611.91239
75.888	65685.27983
76.106	65586.73484
76.324	65719.73486
76.542	65724.33198
76.76	65643.9879
76.978	65655.45199
77.196	65687.57556
77.413	65614.20233
77.631	65591.31097
77.849	65699.0569
78.067	65609.62263
78.284	65607.33305
78.502	65664.62652
78.72	65664.62652
78.938	65719.73486
79.155	65701.35372
79.373	65655.45199
79.59	65701.35372
79.808	65664.62652
80.026	65689.87146
80.243	65673.80395
80.461	65563.86484
80.678	65547.86637
80.896	65607.33305
81.113	65637.11161
81.331	65669.21488
81.548	65463.44571
81.766	65602.75442
81.983	65625.65473
82.2	65676.09877
82.418	65731.22904
82.635	65595.88782
82.852	65499.92265
83.07	65646.28036
83.287	65657.74535
83.504	65623.36389
83.722	65550.15134
83.939	65639.40353
84.156	65543.29697
84.373	65696.76027
84.591	65655.45199
84.808	65641.69562
85.025	65602.75442
85.242	65676.09877
85.459	65634.81987
85.676	65646.28036
85.893	65712.84056
86.11	65627.94574
86.327	65630.23694
86.544	65641.69562
86.761	65671.50932
86.978	65602.75442
87.195	65637.11161
87.412	65747.32863
87.629	65692.16755
87.846	65653.15881
88.063	65568.43742
88.28	65646.28036
88.497	65655.45199
88.713	65685.27983
88.93	65710.54282
89.147	65671.50932
89.364	65611.91239
89.58	65639.40353
89.797	65611.91239
90.014	65641.69562
90.231	65589.02282
90.447	65666.92061
90.664	65611.91239
90.881	65621.07323
91.097	65575.29762
91.314	65582.15942
91.53	65660.0389
91.747	65630.23694
91.963	65694.46382
92.18	65646.28036
92.396	65646.28036
92.613	65632.52832
92.829	65731.22904
93.046	65715.13847
93.262	65705.94791
93.479	65614.20233
93.695	65621.07323
93.911	65655.45199
94.128	65705.94791
94.344	65568.43742
94.56	65607.33305
94.777	65754.23122
94.993	65685.27983
95.209	65579.87197
95.426	65427.01297
95.642	65708.24527
95.858	65669.21488
96.074	65653.15881
96.29	65719.73486
96.506	65648.57299
96.723	65630.23694
96.939	65701.35372
97.155	65689.87146
97.371	65639.40353
97.587	65671.50932
97.803	65673.80395
98.019	65664.62652
98.235	65607.33305
98.451	65696.76027
98.667	65550.15134
98.883	65687.57556
99.099	65719.73486
99.315	65692.16755
99.53	65632.52832
99.746	65664.62652
99.962	65699.0569
100.178	65655.45199
100.394	65657.74535
100.61	65724.33198
100.825	65609.62263
101.041	65687.57556
101.257	65634.81987
101.473	65639.40353
101.688	65621.07323
101.904	65678.39376
102.12	65646.28036
102.335	65632.52832
102.551	65678.39376
102.766	65586.73484
102.982	65664.62652
103.198	65685.27983
103.413	65643.9879
103.629	65676.09877
103.844	65669.21488
104.06	65657.74535
104.275	65605.04365
104.49	65623.36389
104.706	65696.76027
104.921	65060.53314
105.137	65643.9879
105.352	65577.58471
105.567	65657.74535
105.783	65634.81987
105.998	65627.94574
106.213	65609.62263
106.429	65694.46382
106.644	65678.39376
106.859	65637.11161
107.074	65511.33082
107.29	65696.76027
107.505	65662.33262
107.72	65591.31097
107.935	65595.88782
108.15	65627.94574
108.365	65708.24527
108.58	65605.04365
108.795	65598.17651
109.01	65605.04365
109.226	65728.92983
109.441	65490.79925
109.656	65708.24527
109.871	65541.01253
110.085	65609.62263
110.3	65639.40353
110.515	65717.43657
110.73	65554.7218
110.945	65666.92061
111.16	65609.62263
111.375	65614.20233
111.59	65662.33262
111.804	65632.52832
112.019	65634.81987
112.234	65671.50932
112.449	65609.62263
112.663	65648.57299
112.878	65671.50932
113.093	65650.86581
113.308	65563.86484
113.522	65648.57299
113.737	65770.34378
113.951	65618.78275
114.166	65650.86581
114.381	65639.40353
114.595	65662.33262
114.81	65632.52832
115.024	65646.28036
115.239	65618.78275
115.453	65680.68894
115.668	65664.62652
115.882	65611.91239
116.097	65664.62652
116.311	65747.32863
116.525	65639.40353
116.74	65754.23122
116.954	65602.75442
117.169	65650.86581
117.383	65632.52832
117.597	65589.02282
117.811	65648.57299
118.026	65563.86484
118.24	65600.46537
118.454	65653.15881
118.668	65655.45199
118.883	65655.45199
119.097	65637.11161
119.311	65637.11161
119.525	65639.40353
119.739	65643.9879
119.953	65664.62652
120.167	65522.74336
120.381	65673.80395
120.595	65639.40353
120.809	65680.68894
121.023	65625.65473
121.237	65664.62652
121.451	65673.80395
121.665	65669.21488
121.879	65637.11161
122.093	65573.01071
122.307	65745.02813
122.521	65685.27983
122.735	65573.01071
122.949	65669.21488
123.163	65724.33198
123.376	65607.33305
123.59	65586.73484
123.804	65643.9879
124.018	65680.68894
124.231	65692.16755
124.445	65715.13847
124.659	65570.72398
124.872	65552.43648
125.086	65648.57299
125.3	65643.9879
125.513	65625.65473
125.727	65680.68894
125.94	65627.94574
126.154	65648.57299
126.368	65696.76027
126.581	65671.50932
126.795	65680.68894
127.008	65676.09877
127.222	65708.24527
127.435	65696.76027
127.648	65694.46382
127.862	65623.36389
128.075	65687.57556
128.289	65605.04365
128.502	65699.0569
128.715	65634.81987
128.929	65749.62931
129.142	65676.09877
129.355	65646.28036
129.568	65584.44704
129.782	65623.36389
129.995	65568.43742
130.208	65669.21488
130.421	65689.87146
130.634	65682.98429
130.848	65605.04365
131.061	65568.43742
131.274	65609.62263
131.487	65708.24527
131.7	65680.68894
131.913	65607.33305
132.126	65653.15881
132.339	65557.00729
132.552	65468.00291
132.765	65575.29762
132.978	65653.15881
133.191	65676.09877
133.404	65611.91239
133.617	65671.50932
133.83	65623.36389
134.043	65701.35372
134.255	65726.63081
134.468	65625.65473
134.681	65722.03332
134.894	65763.43728
135.107	65692.16755
135.319	65614.20233
135.532	65641.69562
135.745	65607.33305
135.958	65660.0389
136.17	65733.52842
136.383	65637.11161
136.596	65685.27983
136.808	65657.74535
137.021	65595.88782
137.233	65687.57556
137.446	65630.23694
137.659	65669.21488
137.871	65520.4605
138.084	65660.0389
138.296	65621.07323
138.509	65655.45199
138.721	65689.87146
138.934	65637.11161
139.146	65623.36389
139.358	65682.98429
139.571	65561.57881
139.783	65566.15104
139.996	65641.69562
140.208	65586.73484
140.42	65593.5993
140.632	65621.07323
140.845	65673.80395
141.057	65733.52842
141.269	65680.68894
141.481	65655.45199
141.694	65701.35372
141.906	65634.81987
142.118	65751.93017
142.33	65627.94574
142.542	65708.24527
142.754	65616.49245
142.967	65740.42769
143.179	65694.46382
143.391	65582.15942
143.603	65673.80395
143.815	65570.72398
144.027	65650.86581
144.239	65543.29697
144.451	65641.69562
144.663	65653.15881
144.875	65577.58471
145.086	65545.58158
145.298	65598.17651
145.51	65676.09877
145.722	65579.87197
145.934	65669.21488
146.146	65673.80395
146.358	65657.74535
146.569	65708.24527
146.781	65623.36389
146.993	65705.94791
147.205	65559.29296
147.416	65660.0389
147.628	65650.86581
147.84	65609.62263
148.051	65657.74535
148.263	65623.36389
148.475	65696.76027
148.686	65662.33262
148.898	65586.73484
149.109	65570.72398
149.321	65699.0569
149.532	65577.58471
149.744	65634.81987
149.955	65611.91239
150.167	65666.92061
150.378	65653.15881
150.59	65682.98429
150.801	65722.03332
151.013	65708.24527
151.224	65570.72398
151.435	65657.74535
151.647	65570.72398
151.858	65625.65473
152.069	65657.74535
152.281	65660.0389
152.492	65630.23694
152.703	65664.62652
152.914	65529.59298
153.126	65625.65473
153.337	65630.23694
153.548	65726.63081
153.759	65621.07323
153.97	65705.94791
154.181	65689.87146
154.392	65600.46537
154.604	65717.43657
154.815	65680.68894
155.026	65614.20233
155.237	65657.74535
155.448	65550.15134
155.659	65632.52832
155.87	65639.40353
156.081	65618.78275
156.292	65687.57556
156.502	65719.73486
156.713	65616.49245
156.924	65593.5993
157.135	65637.11161
157.346	65653.15881
157.557	65616.49245
157.768	65682.98429
157.978	65724.33198
158.189	65627.94574
158.4	65689.87146
158.611	65627.94574
158.821	65577.58471
159.032	65666.92061
159.243	65598.17651
159.453	65646.28036
159.664	65646.28036
159.875	65607.33305
160.085	65682.98429
160.296	65607.33305
160.507	65666.92061
160.717	65692.16755
160.928	65605.04365
161.138	65809.51228
161.349	65664.62652
161.559	65731.22904
161.77	65662.33262
161.98	65685.27983
162.19	65611.91239
162.401	65666.92061
162.611	65600.46537
162.822	65673.80395
163.032	65666.92061
163.242	65680.68894
163.453	65600.46537
163.663	65703.65072
163.873	65627.94574
164.084	65689.87146
164.294	65701.35372
164.504	65650.86581
164.714	65632.52832
164.924	65634.81987
165.135	65685.27983
165.345	65605.04365
165.555	65643.9879
165.765	65591.31097
165.975	65600.46537
166.185	65648.57299
166.395	65676.09877
166.605	65717.43657
166.815	65705.94791
167.025	65664.62652
167.235	65566.15104
167.445	65763.43728
167.655	65627.94574
167.865	65657.74535
168.075	65641.69562
168.285	65657.74535
168.495	65639.40353
168.705	65575.29762
168.915	65550.15134
169.124	65614.20233
169.334	65616.49245
169.544	65621.07323
169.754	65657.74535
169.964	65611.91239
170.173	65586.73484
170.383	65632.52832
170.593	65639.40353
170.802	65595.88782
171.012	65699.0569
171.222	65662.33262
171.431	65703.65072
171.641	65669.21488
171.851	65724.33198
172.06	65682.98429
172.27	65685.27983
172.479	65618.78275
172.689	65680.68894
172.898	65627.94574
173.108	65671.50932
173.317	65605.04365
173.527	65710.54282
173.736	65715.13847
173.945	65641.69562
174.155	65602.75442
174.364	65605.04365
174.574	65641.69562
174.783	65653.15881
174.992	65591.31097
175.202	65650.86581
175.411	65593.5993
175.62	65680.68894
175.829	65694.46382
176.039	65630.23694
176.248	65600.46537
176.457	65653.15881
176.666	65568.43742
176.875	65685.27983
177.084	65614.20233
177.294	65692.16755
177.503	65705.94791
177.712	65563.86484
177.921	65687.57556
178.13	65655.45199
178.339	65742.72782
178.548	65676.09877
178.757	65643.9879
178.966	65605.04365
179.175	65618.78275
179.384	65662.33262
179.593	65639.40353
179.802	65717.43657
180.011	65643.9879
180.219	65664.62652
180.428	65634.81987
180.637	65634.81987
180.846	65605.04365
181.055	65637.11161
181.263	65662.33262
181.472	65559.29296
181.681	65692.16755
181.89	65627.94574
182.098	65561.57881
182.307	65669.21488
182.516	65630.23694
182.724	65646.28036
182.933	65609.62263
183.142	65733.52842
183.35	65630.23694
183.559	65637.11161
183.767	65653.15881
183.976	65682.98429
184.184	65696.76027
184.393	65623.36389
184.601	65682.98429
184.81	65563.86484
185.018	65687.57556
185.227	65625.65473
185.435	65705.94791
185.644	65609.62263
185.852	65751.93017
186.06	65607.33305
186.269	65607.33305
186.477	65602.75442
186.685	65650.86581
186.894	65561.57881
187.102	65646.28036
187.31	65577.58471
187.518	65650.86581
187.727	65735.828
187.935	65712.84056
188.143	65653.15881
188.351	65621.07323
188.559	65712.84056
188.768	65575.29762
188.976	65595.88782
189.184	65611.91239
189.392	65609.62263
189.6	65618.78275
189.808	65538.72827
190.016	65680.68894
190.224	65669.21488
190.432	65639.40353
190.64	65643.9879
190.848	65634.81987
191.056	65586.73484
191.264	65625.65473
191.472	65650.86581
191.679	65666.92061
191.887	65660.0389
192.095	65742.72782
192.303	65623.36389
192.511	65673.80395
192.719	65749.62931
192.926	65593.5993
193.134	65749.62931
193.342	65678.39376
193.55	65657.74535
193.757	65650.86581
193.965	65627.94574
194.173	65611.91239
194.38	65717.43657
194.588	65692.16755
194.796	65671.50932
195.003	65595.88782
195.211	65692.16755
195.418	65673.80395
195.626	65740.42769
195.833	65634.81987
196.041	65591.31097
196.248	65650.86581
196.456	65593.5993
196.663	65550.15134
196.871	65680.68894
197.078	65632.52832
197.285	65657.74535
197.493	65632.52832
197.7	65513.61298
197.908	65625.65473
198.115	65666.92061
198.322	65637.11161
198.529	65708.24527
198.737	65726.63081
198.944	65632.52832
199.151	65724.33198
199.358	65689.87146
199.566	65768.04143
199.773	65559.29296
199.98	65655.45199
200.187	65685.27983
200.394	65648.57299
200.601	65527.3096
200.809	65738.12775
201.016	65625.65473
201.223	65618.78275
201.43	65733.52842
201.637	65676.09877
201.844	65680.68894
202.051	65754.23122
202.258	65630.23694
202.465	65671.50932
202.672	65742.72782
202.878	65648.57299
203.085	65676.09877
203.292	65630.23694
203.499	65600.46537
203.706	65648.57299
203.913	65646.28036
204.12	65708.24527
204.326	65689.87146
204.533	65701.35372
204.74	65591.31097
204.947	65639.40353
205.153	65650.86581
205.36	65634.81987
205.567	65740.42769
205.773	65733.52842
205.98	65611.91239
206.187	65655.45199
206.393	65646.28036
206.6	65669.21488
206.806	65710.54282
207.013	65584.44704
207.22	65591.31097
207.426	65701.35372
207.633	65641.69562
207.839	65575.29762
208.046	65607.33305
208.252	65609.62263
208.458	65605.04365
208.665	65632.52832
208.871	65671.50932
209.078	65563.86484
209.284	65655.45199
209.49	65666.92061
209.697	65669.21488
209.903	65708.24527
210.109	65673.80395
210.316	65607.33305
210.522	65687.57556
210.728	65625.65473
210.934	65429.28873
211.14	65669.21488
211.347	65728.92983
211.553	65614.20233
211.759	65637.11161
211.965	65591.31097
212.171	65614.20233
212.377	65579.87197
212.583	65641.69562
212.789	65678.39376
212.996	65627.94574
213.202	65593.5993
213.408	65634.81987
213.614	65641.69562
213.82	65689.87146
214.025	65673.80395
214.231	65719.73486
214.437	65678.39376
214.643	65575.29762
214.849	65639.40353
215.055	65646.28036
215.261	65703.65072
215.467	65637.11161
215.672	65717.43657
215.878	65577.58471
216.084	65696.76027
216.29	65637.11161
216.496	65561.57881
216.701	65605.04365
216.907	65699.0569
217.113	65639.40353
217.318	65570.72398
217.524	65682.98429
217.73	65694.46382
217.935	65662.33262
218.141	65609.62263
218.346	65627.94574
218.552	65660.0389
218.758	65627.94574
218.963	65616.49245
219.169	65625.65473
219.374	65637.11161
219.58	65637.11161
219.785	65657.74535
219.991	65584.44704
220.196	65738.12775
220.401	65671.50932
220.607	65641.69562
220.812	65557.00729
221.017	65646.28036
221.223	65593.5993
221.428	65568.43742
221.633	65589.02282
221.839	65637.11161
222.044	65696.76027
222.249	65627.94574
222.454	65621.07323
222.66	65623.36389
222.865	65669.21488
223.07	65522.74336
223.275	65643.9879
223.48	65611.91239
223.686	65696.76027
223.891	65726.63081
224.096	65719.73486
224.301	65536.44418
224.506	65692.16755
224.711	65598.17651
224.916	65678.39376
225.121	65671.50932
225.326	65669.21488
225.531	65696.76027
225.736	65676.09877
225.941	65705.94791
226.146	65655.45199
226.351	65625.65473
226.555	65623.36389
226.76	65618.78275
226.965	65722.03332
227.17	65664.62652
227.375	65687.57556
227.58	65671.50932
227.784	65602.75442
227.989	65761.13549
228.194	65682.98429
228.399	65611.91239
228.603	65703.65072
228.808	65678.39376
229.013	65589.02282
229.217	65641.69562
229.422	65694.46382
229.627	65655.45199
229.831	65676.09877
230.036	65607.33305
230.24	65634.81987
230.445	65611.91239
230.649	65634.81987
230.854	65625.65473
231.058	65664.62652
231.263	65653.15881
231.467	65621.07323
231.672	65660.0389
231.876	65641.69562
232.081	65591.31097
232.285	65614.20233
232.489	65611.91239
232.694	65680.68894
232.898	65591.31097
233.102	65547.86637
233.307	65634.81987
233.511	65657.74535
233.715	65609.62263
233.919	65586.73484
234.124	65701.35372
234.328	65740.42769
234.532	65637.11161
234.736	65598.17651
234.94	65692.16755
235.145	65632.52832
235.349	65621.07323
235.553	65527.3096
235.757	65536.44418
235.961	65694.46382
236.165	65687.57556
236.369	65602.75442
236.573	65605.04365
236.777	65701.35372
236.981	65627.94574
237.185	65563.86484
237.389	65662.33262
237.593	65641.69562
237.797	65611.91239
238.001	65607.33305
238.205	65623.36389
238.409	65678.39376
238.612	65682.98429
238.816	65520.4605
239.02	65646.28036
239.224	65660.0389
239.428	65609.62263
239.631	65632.52832
239.835	65616.49245
240.039	65646.28036
240.243	65595.88782
240.446	65570.72398
240.65	65696.76027
240.854	65795.68193
241.057	65621.07323
241.261	65696.76027
241.464	65717.43657
241.668	65593.5993
241.872	65682.98429
242.075	65643.9879
242.279	65632.52832
242.482	65680.68894
242.686	65671.50932
242.889	65579.87197
243.093	65682.98429
243.296	65586.73484
243.499	65643.9879
243.703	65646.28036
243.906	65705.94791
244.11	65616.49245
244.313	65650.86581
244.516	65625.65473
244.72	65586.73484
244.923	65708.24527
245.126	65552.43648
245.33	65623.36389
245.533	65699.0569
245.736	65625.65473
245.939	65662.33262
246.142	65630.23694
246.346	65678.39376
246.549	65724.33198
246.752	65682.98429
246.955	65660.0389
247.158	65618.78275
247.361	65664.62652
247.564	65605.04365
247.767	65563.86484
247.971	65646.28036
248.174	65614.20233
248.377	65664.62652
248.58	65724.33198
248.783	65689.87146
248.985	65650.86581
249.188	65664.62652
249.391	65616.49245
249.594	65646.28036
249.797	65694.46382
250	65566.15104
250.203	65662.33262
250.406	65669.21488
250.609	65696.76027
250.811	65673.80395
251.014	65673.80395
251.217	65705.94791
251.42	65689.87146
251.622	65522.74336
251.825	65586.73484
252.028	65673.80395
252.231	65678.39376
252.433	65692.16755
252.636	65584.44704
252.838	65611.91239
253.041	65648.57299
253.244	65598.17651
253.446	65547.86637
253.649	65634.81987
253.851	65591.31097
254.054	65669.21488
254.256	65582.15942
254.459	65673.80395
254.661	65616.49245
254.864	65694.46382
255.066	65490.79925
255.269	65653.15881
255.471	65618.78275
255.673	65602.75442
255.876	65673.80395
256.078	65618.78275
256.281	65630.23694
256.483	65646.28036
256.685	65701.35372
256.887	65637.11161
257.09	65627.94574
257.292	65692.16755
257.494	65602.75442
257.696	65662.33262
257.899	65692.16755
258.101	65550.15134
258.303	65623.36389
258.505	65722.03332
258.707	65655.45199
258.909	65682.98429
259.111	65742.72782
259.314	65623.36389
259.516	65673.80395
259.718	65586.73484
259.92	65632.52832
260.122	65660.0389
260.324	65673.80395
260.526	65566.15104
260.728	65630.23694
260.93	65611.91239
261.131	65728.92983
261.333	65687.57556
261.535	65650.86581
261.737	65678.39376
261.939	65605.04365
262.141	65641.69562
262.343	65598.17651
262.544	65616.49245
262.746	65616.49245
262.948	65699.0569
263.15	65648.57299
263.352	65577.58471
263.553	65646.28036
263.755	65699.0569
263.957	65573.01071
264.158	65609.62263
264.36	65632.52832
264.562	65595.88782
264.763	65682.98429
264.965	65614.20233
265.166	65666.92061
265.368	65570.72398
265.569	65676.09877
265.771	65671.50932
265.972	65607.33305
266.174	65676.09877
266.375	65662.33262
266.577	65648.57299
266.778	65616.49245
266.98	65646.28036
267.181	65696.76027
267.383	65717.43657
267.584	65568.43742
267.785	65653.15881
267.987	65673.80395
268.188	65722.03332
268.389	65607.33305
268.591	65717.43657
268.792	65715.13847
268.993	65618.78275
269.194	65673.80395
269.396	65582.15942
269.597	65634.81987
269.798	65685.27983
269.999	65632.52832
270.2	65715.13847
270.401	65577.58471
270.603	65676.09877
270.804	65692.16755
271.005	65694.46382
271.206	65646.28036
271.407	65618.78275
271.608	65573.01071
271.809	65650.86581
272.01	65637.11161
272.211	65664.62652
272.412	65602.75442
272.613	65595.88782
272.814	65699.0569
273.015	65671.50932
273.216	65692.16755
273.416	65666.92061
273.617	65591.31097
273.818	65616.49245
274.019	65660.0389
274.22	65600.46537
274.421	65630.23694
274.621	65666.92061
274.822	65632.52832
275.023	65637.11161
275.224	65643.9879
275.424	65726.63081
275.625	65758.83388
275.826	65653.15881
276.026	65696.76027
276.227	65660.0389
276.428	65611.91239
276.628	65605.04365
276.829	65607.33305
277.029	65660.0389
277.23	65637.11161
277.43	65614.20233
277.631	65570.72398
277.831	65728.92983
278.032	65705.94791
278.232	65660.0389
278.433	65676.09877
278.633	65568.43742
278.834	65678.39376
279.034	65607.33305
279.234	65577.58471
279.435	65648.57299
279.635	65627.94574
279.835	65655.45199
280.036	65566.15104
280.236	65740.42769
280.436	65676.09877
280.637	65648.57299
280.837	65582.15942
281.037	65653.15881
281.237	65653.15881
281.438	65666.92061
281.638	65676.09877
281.838	65671.50932
282.038	65671.50932
282.238	65648.57299
282.438	65657.74535
282.638	65655.45199
282.838	65673.80395
283.038	65627.94574
283.239	65669.21488
283.439	65650.86581
283.639	65554.7218
283.839	65685.27983
284.039	65625.65473
284.238	65650.86581
284.438	65607.33305
284.638	65701.35372
284.838	65678.39376
285.038	65680.68894
285.238	65703.65072
285.438	65643.9879
285.638	65641.69562
285.838	65646.28036
286.037	65611.91239
286.237	65685.27983
286.437	65692.16755
286.637	65669.21488
286.836	65666.92061
287.036	65717.43657
287.236	65614.20233
287.436	65701.35372
287.635	65637.11161
287.835	65646.28036
288.034	65650.86581
288.234	65557.00729
288.434	65623.36389
288.633	65660.0389
288.833	65694.46382
289.032	65749.62931
289.232	65637.11161
289.431	65637.11161
289.631	65673.80395
289.83	65568.43742
290.03	65696.76027
290.229	65685.27983
290.429	65756.53246
290.628	65586.73484
290.828	65719.73486
291.027	65742.72782
291.226	65669.21488
291.426	65630.23694
291.625	65513.61298
291.824	65664.62652
292.024	65664.62652
292.223	65696.76027
292.422	65655.45199
292.621	65673.80395
292.821	65621.07323
293.02	65660.0389
293.219	65589.02282
293.418	65694.46382
293.617	65600.46537
293.817	65687.57556
294.016	65559.29296
294.215	65591.31097
294.414	65733.52842
294.613	65669.21488
294.812	65655.45199
295.011	65682.98429
295.21	65632.52832
295.409	65722.03332
295.608	65768.04143
295.807	65687.57556
296.006	65623.36389
296.205	65657.74535
296.404	65522.74336
296.603	65676.09877
296.802	65561.57881
297.001	65685.27983
297.2	65682.98429
297.398	65701.35372
297.597	65589.02282
297.796	65726.63081
297.995	65710.54282
298.194	65607.33305
298.392	65671.50932
298.591	65664.62652
298.79	65708.24527
298.988	65676.09877
299.187	65671.50932
299.386	65641.69562
299.585	65660.0389
299.783	65643.9879
299.982	65579.87197
300.18	65678.39376
300.379	65666.92061
300.578	65669.21488
300.776	65726.63081
300.975	65632.52832
301.173	65575.29762
301.372	65660.0389
301.57	65678.39376
301.769	65682.98429
301.967	65611.91239
302.166	65660.0389
302.364	65703.65072
302.562	65655.45199
302.761	65609.62263
302.959	65664.62652
303.157	65618.78275
303.356	65692.16755
303.554	65600.46537
303.752	65660.0389
303.951	65625.65473
304.149	65538.72827
304.347	65632.52832
304.546	65602.75442
304.744	65639.40353
304.942	65623.36389
305.14	65692.16755
305.338	65717.43657
305.536	65669.21488
305.735	65671.50932
305.933	65678.39376
306.131	65687.57556
306.329	65600.46537
306.527	65717.43657
306.725	65664.62652
306.923	65611.91239
307.121	65554.7218
307.319	65689.87146
307.517	65692.16755
307.715	65641.69562
307.913	65531.87654
308.111	65618.78275
308.309	65634.81987
308.507	65666.92061
308.705	65655.45199
308.903	65710.54282
309.1	65591.31097
309.298	65595.88782
309.496	65637.11161
309.694	65673.80395
309.892	65699.0569
310.089	65705.94791
310.287	65655.45199
310.485	65685.27983
310.683	65641.69562
310.88	65660.0389
311.078	65666.92061
311.276	65602.75442
311.473	65653.15881
311.671	65643.9879
311.869	65600.46537
312.066	65650.86581
312.264	65648.57299
312.461	65570.72398
312.659	65591.31097
312.856	65602.75442
313.054	65680.68894
313.251	65676.09877
313.449	65589.02282
313.646	65657.74535
313.844	65701.35372
314.041	65657.74535
314.239	65586.73484
314.436	65577.58471
314.634	65545.58158
314.831	65602.75442
315.028	65724.33198
315.226	65657.74535
315.423	65586.73484
315.62	65692.16755
315.817	65639.40353
316.015	65531.87654
316.212	65687.57556
316.409	65607.33305
316.606	65623.36389
316.804	65669.21488
317.001	65703.65072
317.198	65605.04365
317.395	65605.04365
317.592	65605.04365
317.789	65655.45199
317.987	65632.52832
318.184	65685.27983
318.381	65722.03332
318.578	65607.33305
318.775	65717.43657
318.972	65712.84056
319.169	65710.54282
319.366	65602.75442
319.563	65639.40353
319.76	65678.39376
319.957	65669.21488
320.154	65682.98429
320.351	65600.46537
320.547	65623.36389
320.744	65662.33262
320.941	65541.01253
321.138	65655.45199
321.335	65641.69562
321.532	65689.87146
321.728	65609.62263
321.925	65708.24527
322.122	65529.59298
322.319	65756.53246
322.515	65600.46537
322.712	65614.20233
322.909	65726.63081
323.105	65731.22904
323.302	65591.31097
323.499	65570.72398
323.695	65618.78275
323.892	65648.57299
324.089	65605.04365
324.285	65671.50932
324.482	65680.68894
324.678	65731.22904
324.875	65685.27983
325.071	65634.81987
325.268	65639.40353
325.464	65664.62652
325.661	65643.9879
325.857	65657.74535
326.054	65692.16755
326.25	65618.78275
326.446	65616.49245
326.643	65637.11161
326.839	65660.0389
327.035	65740.42769
327.232	65591.31097
327.428	65735.828
327.624	65728.92983
327.821	65646.28036
328.017	65705.94791
328.213	65682.98429
328.409	65646.28036
328.606	65625.65473
328.802	65627.94574
328.998	65662.33262
329.194	65724.33198
329.39	65602.75442
329.586	65646.28036
329.783	65607.33305
329.979	65634.81987
330.175	65664.62652
330.371	65646.28036
330.567	65662.33262
330.763	65634.81987
330.959	65699.0569
331.155	65671.50932
331.351	65680.68894
331.547	65616.49245
331.743	65756.53246
331.939	65653.15881
332.135	65680.68894
332.33	65579.87197
332.526	65643.9879
332.722	65627.94574
332.918	65595.88782
333.114	65699.0569
333.31	65543.29697
333.506	65570.72398
333.701	65648.57299
333.897	65758.83388
334.093	65605.04365
334.289	65710.54282
334.484	65545.58158
334.68	65561.57881
334.876	65589.02282
335.071	65655.45199
335.267	65584.44704
335.463	65666.92061
335.658	65664.62652
335.854	65774.94904
336.049	65650.86581
336.245	65680.68894
336.441	65676.09877
336.636	65627.94574
336.832	65609.62263
337.027	65527.3096
337.223	65715.13847
337.418	65573.01071
337.613	65705.94791
337.809	65623.36389
338.004	65699.0569
338.2	65641.69562
338.395	65692.16755
338.591	65598.17651
338.786	65705.94791
338.981	65701.35372
339.177	65710.54282
339.372	65637.11161
339.567	65577.58471
339.762	65609.62263
339.958	65777.25194
340.153	65735.828
340.348	65107.80029
340.543	65657.74535
340.739	65701.35372
340.934	65671.50932
341.129	65618.78275
341.324	65618.78275
341.519	65726.63081
341.714	65791.07331
341.909	65705.94791
342.104	65646.28036
342.299	65655.45199
342.495	65678.39376
342.69	65696.76027
342.885	65682.98429
343.08	65397.44365
343.275	65563.86484
343.469	65666.92061
343.664	65611.91239
343.859	65655.45199
344.054	65717.43657
344.249	65699.0569
344.444	65643.9879
344.639	65678.39376
344.834	65703.65072
345.029	65650.86581
345.223	65625.65473
345.418	65705.94791
345.613	65637.11161
345.808	65655.45199
346.003	65660.0389
346.197	65655.45199
346.392	65639.40353
346.587	65543.29697
346.781	65669.21488
346.976	65627.94574
347.171	65573.01071
347.365	65678.39376
347.56	65676.09877
347.755	65598.17651
347.949	65673.80395
348.144	65703.65072
348.338	65641.69562
348.533	65637.11161
348.727	65687.57556
348.922	65605.04365
349.116	65719.73486
349.311	65648.57299
349.505	65719.73486
349.7	65703.65072
349.894	65692.16755
350.089	65627.94574
350.283	65662.33262
350.477	65646.28036
350.672	65664.62652
350.866	65586.73484
351.06	65641.69562
351.255	65646.28036
351.449	65650.86581
351.643	65650.86581
351.837	65607.33305
352.032	65747.32863
352.226	65696.76027
352.42	65701.35372
352.614	65584.44704
352.809	65687.57556
353.003	65643.9879
353.197	65630.23694
353.391	65666.92061
353.585	65632.52832
353.779	65728.92983
353.973	65584.44704
354.167	65621.07323
354.361	65708.24527
354.555	65595.88782
354.749	65664.62652
354.943	65687.57556
355.137	65623.36389
355.331	65671.50932
355.525	65685.27983
355.719	65623.36389
355.913	65662.33262
356.107	65634.81987
356.301	65664.62652
356.495	65660.0389
356.689	65650.86581
356.883	65623.36389
357.076	65719.73486
357.27	65589.02282
357.464	65685.27983
357.658	65586.73484
357.852	65657.74535
358.045	65625.65473
358.239	65699.0569
358.433	65673.80395
358.626	65685.27983
358.82	65657.74535
359.014	65637.11161
359.207	65646.28036
359.401	65738.12775
359.595	65625.65473
359.788	65678.39376
359.982	65650.86581
360.175	65616.49245
360.369	65673.80395
360.563	65646.28036
360.756	65657.74535
360.95	65634.81987
361.143	65745.02813
361.336	65795.68193
361.53	65701.35372
361.723	65687.57556
361.917	65630.23694
362.11	65689.87146
362.304	65664.62652
362.497	65655.45199
362.69	65529.59298
362.884	65639.40353
363.077	65678.39376
363.27	65671.50932
363.464	65646.28036
363.657	65687.57556
363.85	65605.04365
364.043	65673.80395
364.237	65646.28036
364.43	65618.78275
364.623	65614.20233
364.816	65703.65072
365.009	65593.5993
365.202	65678.39376
365.396	65577.58471
365.589	65639.40353
365.782	65639.40353
365.975	65719.73486
366.168	65609.62263
366.361	65573.01071
366.554	65655.45199
366.747	65687.57556
366.94	65621.07323
367.133	65660.0389
367.326	65671.50932
367.519	65673.80395
367.712	65781.85832
367.905	65669.21488
368.098	65694.46382
368.291	65552.43648
368.484	65655.45199
368.676	65625.65473
368.869	65726.63081
369.062	65666.92061
369.255	65650.86581
369.448	65614.20233
369.64	65639.40353
369.833	65678.39376
370.026	65605.04365
370.219	65722.03332
370.411	65550.15134
370.604	65735.828
370.797	65639.40353
370.989	65611.91239
371.182	65728.92983
371.375	65600.46537
371.567	65630.23694
371.76	65662.33262
371.952	65731.22904
372.145	65634.81987
372.338	65627.94574
372.53	65637.11161
372.723	65715.13847
372.915	65662.33262
373.108	65689.87146
373.3	65623.36389
373.493	65616.49245
373.685	65614.20233
373.877	65708.24527
374.07	65598.17651
374.262	65589.02282
374.455	65699.0569
374.647	65756.53246
374.839	65591.31097
375.032	65646.28036
375.224	65646.28036
375.416	65705.94791
375.609	65209.32297
375.801	65653.15881
375.993	65699.0569
376.185	65710.54282
376.378	65662.33262
376.57	65641.69562
376.762	65637.11161
376.954	65623.36389
377.146	65609.62263
377.338	65701.35372
377.53	65692.16755
377.723	65607.33305
377.915	65696.76027
378.107	65655.45199
378.299	65687.57556
378.491	65682.98429
378.683	65637.11161
378.875	65678.39376
379.067	65589.02282
379.259	65616.49245
379.451	65664.62652
379.643	65600.46537
379.835	65630.23694
380.027	65584.44704
380.219	65696.76027
380.41	65650.86581
380.602	65643.9879
380.794	65742.72782
380.986	65687.57556
381.178	65657.74535
381.37	65664.62652
381.561	65648.57299
381.753	65566.15104
381.945	65579.87197
382.137	65646.28036
382.328	65676.09877
382.52	65687.57556
382.712	65680.68894
382.903	65584.44704
383.095	65666.92061
383.287	65712.84056
383.478	65625.65473
383.67	65685.27983
383.862	65643.9879
384.053	65637.11161
384.245	65682.98429
384.436	65614.20233
384.628	65641.69562
384.819	65669.21488
385.011	65609.62263
385.202	65662.33262
385.394	65682.98429
385.585	65557.00729
385.777	65678.39376
385.968	65719.73486
386.159	65655.45199
386.351	65648.57299
386.542	65621.07323
386.734	65573.01071
386.925	65673.80395
387.116	65632.52832
387.308	65637.11161
387.499	65699.0569
387.69	65614.20233
387.881	65573.01071
388.073	65648.57299
388.264	65646.28036
388.455	65733.52842
388.646	65600.46537
388.837	65618.78275
389.029	65641.69562
389.22	65666.92061
389.411	65687.57556
389.602	65643.9879
389.793	65678.39376
389.984	65657.74535
390.175	65627.94574
390.366	65614.20233
390.557	65710.54282
390.748	65650.86581
390.939	65726.63081
391.13	65673.80395
391.321	65637.11161
391.512	65669.21488
391.703	65655.45199
391.894	65682.98429
392.085	65705.94791
392.276	65696.76027
392.467	65710.54282
392.658	65692.16755
392.849	65646.28036
393.039	65676.09877
393.23	65660.0389
393.421	65634.81987
393.612	65650.86581
393.803	65657.74535
393.993	65557.00729
394.184	65621.07323
394.375	65708.24527
394.566	65646.28036
394.756	65634.81987
394.947	65598.17651
395.138	65680.68894
395.328	65584.44704
395.519	65605.04365
395.709	65710.54282
395.9	65552.43648
396.091	65680.68894
396.281	65682.98429
396.472	65676.09877
396.662	65701.35372
396.853	65692.16755
397.043	65673.80395
397.234	65678.39376
397.424	65632.52832
397.615	65632.52832
397.805	65641.69562
397.996	65731.22904
398.186	65595.88782
398.376	65577.58471
398.567	65689.87146
398.757	65660.0389
398.947	65791.07331
399.138	65607.33305
399.328	65595.88782
399.518	65712.84056
399.709	65742.72782
399.899	65655.45199
400.089	65692.16755
400.279	65646.28036
400.47	65653.15881
400.66	65650.86581
400.85	65579.87197
401.04	65616.49245
401.23	65591.31097
401.421	65630.23694
401.611	65673.80395
401.801	65614.20233
401.991	65646.28036
402.181	65664.62652
402.371	65632.52832
402.561	65584.44704
402.751	65666.92061
402.941	65618.78275
403.131	65577.58471
403.321	65687.57556
403.511	65637.11161
403.701	65607.33305
403.891	65646.28036
404.081	65643.9879
404.271	65694.46382
404.461	65575.29762
404.651	65703.65072
404.84	65625.65473
405.03	65616.49245
405.22	65692.16755
405.41	65680.68894
405.6	65593.5993
405.789	65598.17651
405.979	65582.15942
406.169	65722.03332
406.359	65655.45199
406.548	65705.94791
406.738	65705.94791
406.928	65579.87197
407.118	65614.20233
407.307	65600.46537
407.497	65648.57299
407.686	65591.31097
407.876	65699.0569
408.066	65678.39376
408.255	65687.57556
408.445	65680.68894
408.634	65607.33305
408.824	65627.94574
409.013	65671.50932
409.203	65593.5993
409.392	65627.94574
409.582	65632.52832
409.771	65726.63081
409.961	65685.27983
410.15	65614.20233
410.34	65625.65473
410.529	65701.35372
410.718	65641.69562
410.908	65513.61298
411.097	65701.35372
411.286	65685.27983
411.476	65715.13847
411.665	65676.09877
411.854	65666.92061
412.044	65710.54282
412.233	65625.65473
412.422	65625.65473
412.611	65643.9879
412.8	65602.75442
412.99	65689.87146
413.179	65609.62263
413.368	65682.98429
413.557	65708.24527
413.746	65660.0389
413.935	65682.98429
414.124	65728.92983
414.313	65593.5993
414.503	65627.94574
414.692	65685.27983
414.881	65573.01071
415.07	65589.02282
415.259	65662.33262
415.448	65586.73484
415.637	65643.9879
415.826	65625.65473
416.015	65717.43657
416.203	65662.33262
416.392	65611.91239
416.581	65673.80395
416.77	65632.52832
416.959	65621.07323
417.148	65680.68894
417.337	65692.16755
417.525	65637.11161
417.714	65618.78275
417.903	65696.76027
418.092	65692.16755
418.281	65625.65473
418.469	65634.81987
418.658	65639.40353
418.847	65669.21488
419.035	65703.65072
419.224	65717.43657
419.413	65694.46382
419.601	65637.11161
419.79	65726.63081
419.979	65662.33262
420.167	65696.76027
420.356	65660.0389
420.544	65623.36389
420.733	65692.16755
420.921	65671.50932
421.11	65623.36389
421.299	65609.62263
421.487	65653.15881
421.675	65648.57299
421.864	65657.74535
422.052	65676.09877
422.241	65557.00729
422.429	65669.21488
422.618	65660.0389
422.806	65637.11161
422.994	65669.21488
423.183	65614.20233
423.371	65669.21488
423.559	65627.94574
423.748	65600.46537
423.936	65673.80395
424.124	65758.83388
424.312	65694.46382
424.501	65637.11161
424.689	65660.0389
424.877	65657.74535
425.065	65655.45199
425.254	65673.80395
425.442	65511.33082
425.63	65579.87197
425.818	65570.72398
426.006	65660.0389
426.194	65566.15104
426.382	65584.44704
426.57	65616.49245
426.758	65632.52832
426.946	65669.21488
427.134	65607.33305
427.323	65685.27983
427.51	65655.45199
427.698	65641.69562
427.886	65611.91239
428.074	65575.29762
428.262	65756.53246
428.45	65646.28036
428.638	65639.40353
428.826	65614.20233
429.014	65687.57556
429.202	65761.13549
429.39	65724.33198
429.577	65584.44704
429.765	65586.73484
429.953	65582.15942
430.141	65657.74535
430.329	65614.20233
430.516	65682.98429
430.704	65522.74336
430.892	65671.50932
431.079	65745.02813
431.267	65586.73484
431.455	65722.03332
431.643	65575.29762
431.83	65623.36389
432.018	65611.91239
432.205	65671.50932
432.393	65719.73486
432.581	65655.45199
432.768	65586.73484
432.956	65591.31097
433.143	65632.52832
433.331	65605.04365
433.518	65671.50932
433.706	65653.15881
433.893	65545.58158
434.081	65678.39376
434.268	65561.57881
434.456	65694.46382
434.643	65682.98429
434.83	65595.88782
435.018	65595.88782
435.205	65678.39376
435.392	65678.39376
435.58	65751.93017
435.767	65593.5993
435.954	65648.57299
436.142	65586.73484
436.329	65687.57556
436.516	65669.21488
436.703	65611.91239
436.891	65573.01071
437.078	65598.17651
437.265	65593.5993
437.452	65602.75442
437.639	65637.11161
437.827	65618.78275
438.014	65600.46537
438.201	65653.15881
438.388	65595.88782
438.575	65646.28036
438.762	65648.57299
438.949	65662.33262
439.136	65607.33305
439.323	65554.7218
439.51	65655.45199
439.697	65577.58471
439.884	65582.15942
440.071	65607.33305
440.258	65579.87197
440.445	65591.31097
440.632	65397.44365
440.819	65600.46537
441.006	65529.59298
441.193	65614.20233
441.38	65577.58471
441.566	65639.40353
441.753	65648.57299
441.94	65582.15942
442.127	65646.28036
442.314	65566.15104
442.5	65543.29697
442.687	65559.29296
442.874	65586.73484
443.061	65593.5993
443.247	65577.58471
443.434	65488.51884
443.621	65655.45199
443.807	65600.46537
443.994	65477.11936
444.181	65614.20233
444.367	65643.9879
444.554	65559.29296
444.74	65584.44704
444.927	65614.20233
445.114	65557.00729
445.3	65431.56466
445.487	65509.04884
445.673	65525.02639
445.86	65554.7218
446.046	65579.87197
446.233	65543.29697
446.419	65575.29762
446.605	65470.28176
446.792	65474.83999
446.978	65614.20233
447.165	65550.15134
447.351	65575.29762
447.537	65589.02282
447.724	65598.17651
447.91	65483.95853
448.096	65509.04884
448.283	65445.22384
448.469	65547.86637
448.655	65531.87654
448.841	65479.39891
449.028	65518.17782
449.214	65504.4854
449.4	65481.67863
449.586	65502.20394
449.773	65474.83999
449.959	65502.20394
450.145	65388.35118
450.331	65518.17782
450.517	65547.86637
450.703	65427.01297
450.889	65520.4605
451.075	65465.72422
451.261	65390.62404
451.447	65383.80596
451.633	65463.44571
451.819	65452.05575
452.005	65381.53361
452.191	65449.77828
452.377	65431.56466
452.563	65408.81306
452.749	65413.36201
452.935	65388.35118
453.121	65349.73837
453.307	65379.26142
453.493	65322.51151
453.679	65363.36086
453.865	65333.85311
454.05	65306.64028
454.236	65352.00836
454.422	65417.91165
454.608	65374.71756
454.794	65395.17028
454.979	65404.26478
455.165	65372.44588
455.351	65313.44124
455.537	65317.97604
455.722	65243.23644
455.908	65324.7795
456.094	65261.33865
456.279	65240.9744
456.465	65207.06337
456.65	65302.10714
456.836	65270.39369
457.022	65259.0753
457.207	65274.9222
457.393	65227.40559
457.578	65279.45137
457.764	65182.21848
457.949	65254.54909
458.135	65193.50919
458.32	65329.31597
458.506	65281.71621
458.691	65245.49864
458.877	65225.14469
459.062	65290.77719
459.248	65297.57466
459.433	65173.18881
459.618	65150.62589
459.804	65247.76101
459.989	65155.13719
460.174	65150.62589
460.36	65177.70332
460.545	65191.25072
460.73	65207.06337
460.915	65195.76781
461.101	65204.80393
461.286	65173.18881
461.471	65191.25072
461.656	65304.37363
461.842	65150.62589
462.027	65179.96082
462.212	65150.62589
462.397	65132.58706
462.582	65164.16172
462.767	65062.78239
462.952	65259.0753
463.138	65143.86013
463.323	65067.28135
463.508	65164.16172
463.693	65123.57147
463.878	65155.13719
464.063	65065.03179
464.248	65101.04359
464.433	65101.04359
464.618	65101.04359
464.803	65096.53991
464.988	65098.79167
465.173	65031.30712
465.357	65071.78094
465.542	65076.28116
465.727	64979.66366
465.912	65029.06005
466.097	65085.28347
466.282	65085.28347
466.467	65029.06005
466.651	64984.15116
466.836	64984.15116
467.021	65141.6052
467.206	65035.80172
467.391	65094.28831
467.575	65056.03511
467.76	65047.04093
467.945	64961.71977
468.129	64993.12801
468.314	64954.99332
468.499	65071.78094
468.683	64943.78563
468.868	65024.56638
469.053	65013.33492
469.237	64997.61736
469.422	64943.78563
469.606	64999.86226
469.791	65062.78239
469.975	64981.90733
470.16	65008.84341
470.344	64972.93355
470.529	65044.79278
470.713	64876.61881
470.898	65038.04925
471.082	64999.86226
471.267	65047.04093
471.451	65031.30712
471.636	65148.37047
471.82	65038.04925
472.004	64907.94647
472.189	65026.81314
472.373	65101.04359
472.557	65083.03266
472.742	65069.53107
472.926	65078.5315
473.11	65089.78558
473.295	64995.37261
473.479	65004.35253
473.663	65013.33492
473.847	65076.28116
474.031	65067.28135
474.216	65062.78239
474.4	65087.53445
474.584	65080.782
474.768	65042.54478
474.952	64977.42014
475.136	64975.17677
475.32	65107.80029
475.505	64995.37261
475.689	64941.54455
475.873	65015.5809
476.057	65006.59789
476.241	65053.78633
476.425	64979.66366
476.609	64943.78563
476.793	65020.07333
476.977	65089.78558
477.161	64984.15116
477.345	64966.20482
477.529	65083.03266
477.713	64928.10124
477.896	65065.03179
478.08	64910.18528
478.264	64977.42014
478.448	65002.10732
478.632	64932.58173
478.816	65141.6052
478.999	64948.26825
479.183	65031.30712
479.367	64999.86226
479.551	64836.38335
479.735	64939.30362
479.918	64975.17677
480.102	64907.94647
480.286	64946.02687
480.469	65013.33492
480.653	64910.18528
480.837	64925.86121
481.02	64952.75148
481.204	64912.42425
481.388	64883.32941
481.571	64785.04098
481.755	64921.38162
481.938	64912.42425
482.122	64948.26825
482.305	64852.02476
482.489	64769.43041
482.673	64814.05104
482.856	64887.80389
483.04	64881.09239
483.223	64872.14582
483.406	64892.27897
483.59	64887.80389
483.773	64831.91571
483.957	64912.42425
484.14	64802.89039
484.323	64767.20091
484.507	64809.58634
484.69	64843.08592
484.874	64914.66337
485.057	64860.96597
485.24	64816.2836
485.423	64952.75148
485.607	64793.96452
485.79	64852.02476
485.973	64807.35421
486.156	64742.68597
486.34	64758.28436
486.523	64740.45821
486.706	64800.65871
486.889	64872.14582
487.072	64767.20091
487.256	64747.14193
487.439	64807.35421
487.622	64749.37013
487.805	64802.89039
487.988	64773.88985
488.171	64742.68597
488.354	64731.5486
488.537	64796.19577
488.72	64749.37013
488.903	64724.8679
489.086	64778.34986
489.269	64738.23059
489.452	64733.77579
489.635	64682.58677
489.818	64573.78142
490.001	64811.81861
490.184	64771.66006
490.367	64769.43041
490.55	64673.69203
490.732	64567.13075
490.915	64711.51039
491.098	64673.69203
491.281	64798.42716
491.464	64724.8679
491.647	64751.59847
491.829	64758.28436
492.012	64667.02247
492.195	64613.71166
492.378	64702.60824
492.56	64558.26511
492.743	64580.43334
492.926	64551.61734
493.108	64691.48378
493.291	64671.4687
493.474	64533.89597
493.656	64549.40168
493.839	64494.05487
494.022	64560.48131
494.204	64489.6308
494.387	64516.18337
494.569	64653.68716
494.752	64522.82457
494.934	64547.18617
495.117	64533.89597
495.299	64571.56439
495.482	64502.90464
495.664	64456.46747
495.847	64538.32549
496.029	64578.21589
496.212	64326.31556
496.394	64549.40168
496.576	64502.90464
496.759	64595.95933
496.941	64418.91885
497.123	64264.70754
497.306	64571.56439
497.488	64485.20727
497.67	64553.83312
497.853	64547.18617
498.035	64421.12653
498.217	64354.95377
498.4	64425.54228
498.582	64575.99859
498.764	64500.69199
498.946	64429.95856
499.128	64443.21061
499.311	64471.93992
499.493	64564.91413
499.675	64432.1669
499.857	64394.64318
500.039	64357.15762
500.221	64394.64318
500.403	64374.79315
500.585	64273.50252
500.767	64335.12497
500.949	64374.79315
501.132	64399.05575
501.314	64432.1669
501.496	64291.09862
501.678	64505.11742
501.859	64361.56572
502.041	64352.75005
502.223	64352.75005
502.405	64385.81963
502.587	64288.89866
502.769	64313.10533
502.951	64310.90408
503.133	64339.53046
503.315	64394.64318
503.497	64368.17884
503.678	64359.3616
503.86	64447.62903
504.042	64242.72902
504.224	64273.50252
504.406	64332.92243
504.587	64388.02532
504.769	64341.7334
504.951	64317.50822
505.132	64425.54228
505.314	64359.3616
505.496	64321.91163
505.678	64388.02532
505.859	64370.38348
506.041	64321.91163
506.222	64337.32765
506.404	64332.92243
506.586	64346.13967
506.767	64282.29954
506.949	64390.23114
507.13	64339.53046
507.312	64348.343
507.493	64207.58978
507.675	64324.11353
507.856	64321.91163
508.038	64412.29662
508.219	64390.23114
508.401	64388.02532
508.582	64293.29871
508.764	64330.72001
508.945	64297.69928
509.126	64385.81963
509.308	64368.17884
509.489	64352.75005
509.671	64410.08948
509.852	64317.50822
510.033	64410.08948
510.214	64383.61407
510.396	64423.33434
510.577	64489.6308
510.758	64306.50196
510.94	64317.50822
511.121	64352.75005
511.302	64354.95377
511.483	64390.23114
511.664	64326.31556
511.846	64438.79273
512.027	64357.15762
512.208	64421.12653
512.389	64407.88247
512.57	64324.11353
512.751	64361.56572
512.932	64343.93647
513.113	64253.71669
513.294	64376.99818
513.476	64363.76996
513.657	64396.8494
513.838	64471.93992
514.019	64332.92243
514.2	64412.29662
514.381	64357.15762
514.561	64337.32765
514.742	64434.37538
514.923	64365.97434
515.104	64348.343
515.285	64392.43709
515.466	64423.33434
515.647	64460.8875
515.828	64315.30671
516.009	64359.3616
516.189	64434.37538
516.37	64469.72916
516.551	64443.21061
516.732	64443.21061
516.913	64407.88247
517.093	64436.58399
517.274	64443.21061
517.455	64284.49912
517.636	64357.15762
517.816	64348.343
517.997	64372.58825
518.178	64379.20335
518.358	64478.57298
518.539	64405.67559
518.72	64388.02532
518.9	64376.99818
519.081	64390.23114
519.261	64339.53046
519.442	64255.9146
519.622	64372.58825
519.803	64376.99818
519.984	64326.31556
520.164	64403.46884
520.345	64383.61407
520.525	64370.38348
520.705	64425.54228
520.886	64321.91163
521.066	64536.11066
521.247	64392.43709
521.427	64396.8494
521.608	64238.33484
521.788	64423.33434
521.968	64225.15535
522.149	64441.0016
522.329	64363.76996
522.509	64471.93992
522.69	64423.33434
522.87	64452.04798
523.05	64478.57298
523.231	64458.67742
523.411	64418.91885
523.591	64365.97434
523.771	64447.62903
523.951	64361.56572
524.132	64343.93647
524.312	64394.64318
524.492	64423.33434
524.672	64368.17884
524.852	64343.93647
525.032	64405.67559
525.213	64372.58825
525.393	64304.3011
525.573	64480.78428
525.753	64332.92243
525.933	64359.3616
526.113	64365.97434
526.293	64469.72916
526.473	64438.79273
526.653	64293.29871
526.833	64429.95856
527.013	64487.41896
527.193	64403.46884
527.373	64418.91885
527.553	64392.43709
527.733	64361.56572
527.913	64449.83844
528.092	64589.3045
528.272	64374.79315
528.452	64432.1669
528.632	64511.75658
528.812	64416.71131
528.992	64365.97434
529.171	64399.05575
529.351	64494.05487
529.531	64487.41896
529.711	64383.61407
529.89	64485.20727
530.07	64376.99818
530.25	64291.09862
530.43	64295.49893
530.609	64418.91885
530.789	64401.26223
530.969	64390.23114
531.148	64458.67742
531.328	64496.26711
531.507	64449.83844
531.687	64363.76996
531.867	64489.6308
532.046	64348.343
532.226	64454.25766
532.405	64392.43709
532.585	64414.5039
532.764	64436.58399
532.944	64291.09862
533.123	64418.91885
533.303	64469.72916
533.482	64293.29871
533.662	64445.41975
533.841	64388.02532
534.021	64352.75005
534.2	64441.0016
534.379	64485.20727
534.559	64423.33434
534.738	64383.61407
534.917	64525.03858
535.097	64414.5039
535.276	64410.08948
535.455	64368.17884
535.635	64502.90464
535.814	64447.62903
535.993	64379.20335
536.172	64511.75658
536.352	64474.15081
536.531	64494.05487
536.71	64401.26223
536.889	64421.12653
537.068	64460.8875
537.248	64480.78428
537.427	64343.93647
537.606	64414.5039
537.785	64418.91885
537.964	64434.37538
538.143	64498.47948
538.322	64449.83844
538.501	64416.71131
538.68	64471.93992
538.859	64368.17884
539.038	64507.33034
539.217	64507.33034
539.396	64575.99859
539.575	64432.1669
539.754	64414.5039
539.933	64379.20335
540.112	64600.39658
540.291	64438.79273
540.47	64441.0016
540.649	64443.21061
540.828	64600.39658
541.007	64410.08948
541.186	64518.39696
541.364	64418.91885
541.543	64500.69199
541.722	64456.46747
541.901	64494.05487
542.08	64343.93647
542.258	64381.40864
542.437	64525.03858
542.616	64390.23114
542.795	64544.97079
542.973	64500.69199
543.152	64509.54339
543.331	64487.41896
543.509	64533.89597
543.688	64414.5039
543.867	64511.75658
544.045	64525.03858
544.224	64374.79315
544.402	64115.50178
544.581	64478.57298
544.76	64575.99859
544.938	64469.72916
545.117	64438.79273
545.295	64487.41896
545.474	64485.20727
545.652	64560.48131
545.831	64511.75658
546.009	64381.40864
546.188	64485.20727
546.366	64498.47948
546.544	64476.36183
546.723	64471.93992
546.901	64465.30806
547.08	64407.88247
547.258	64518.39696
547.436	64516.18337
547.615	64564.91413
547.793	64491.84276
547.971	64474.15081
548.15	64489.6308
548.328	64436.58399
548.506	64374.79315
548.684	64348.343
548.863	64509.54339
549.041	64540.54045
549.219	64598.17788
549.397	64460.8875
549.576	64511.75658
549.754	64469.72916
549.932	64496.26711
550.11	64538.32549
550.288	64573.78142
550.466	64660.35418
550.644	64436.58399
550.822	64533.89597
551.001	64573.78142
551.179	64627.03178
551.357	64562.69765
551.535	64505.11742
551.713	64564.91413
551.891	64569.3475
552.069	64613.71166
552.247	64573.78142
552.425	64609.27274
552.603	64609.27274
552.781	64587.0865
552.958	64618.15114
553.136	64595.95933
553.314	64711.51039
553.492	64667.02247
553.67	64693.70838
553.848	64707.05903
554.026	64805.12223
554.204	64787.27165
554.381	64727.09466
554.559	64789.50246
554.737	64863.20164
554.915	64796.19577
555.092	64753.82696
555.27	64827.44866
555.448	64789.50246
555.626	64840.85158
555.803	64928.10124
555.981	64756.05559
556.159	64885.56657
556.336	64894.51673
556.514	64957.23532
556.692	64912.42425
556.869	64885.56657
557.047	64881.09239
557.224	64912.42425
557.402	64928.10124
557.58	64852.02476
557.757	64966.20482
557.935	65065.03179
558.112	64970.69049
558.29	64959.47747
558.467	65065.03179
558.645	65067.28135
558.822	65080.782
559	65053.78633
559.177	65029.06005
559.354	65004.35253
559.532	65011.08909
559.709	65042.54478
559.887	65004.35253
560.064	65105.5479
560.241	64981.90733
560.419	65002.10732
560.596	64981.90733
560.773	64975.17677
560.951	64957.23532
561.128	64840.85158
561.305	65069.53107
561.482	65011.08909
561.66	64959.47747
561.837	64954.99332
562.014	65004.35253
562.191	65078.5315
562.368	65024.56638
562.546	64957.23532
562.723	65058.28405
562.9	65026.81314
563.077	64952.75148
563.254	65049.28925
563.431	65017.82704
563.608	64930.34141
563.785	65047.04093
563.962	64986.39514
564.139	65076.28116
564.317	64959.47747
564.494	65092.03686
564.671	64894.51673
564.848	64990.88357
565.025	65042.54478
565.201	65069.53107
565.378	64999.86226
565.555	64997.61736
565.732	65033.55434
565.909	65042.54478
566.086	65024.56638
566.263	65074.03097
566.44	65029.06005
566.617	65069.53107
566.794	64990.88357
566.97	65053.78633
567.147	65123.57147
567.324	65026.81314
567.501	65087.53445
567.678	65024.56638
567.854	65047.04093
568.031	65157.39308
568.208	65026.81314
568.384	65092.03686
568.561	65067.28135
568.738	65092.03686
568.915	65069.53107
569.091	65143.86013
569.268	65103.29567
569.444	65152.88146
569.621	65123.57147
569.798	65150.62589
569.974	65094.28831
570.151	65089.78558
570.327	65105.5479
570.504	65078.5315
570.681	65173.18881
570.857	65141.6052
571.034	65150.62589
571.21	65101.04359
571.387	65247.76101
571.563	65220.62339
571.739	65058.28405
571.916	65270.39369
572.092	65195.76781
572.269	65143.86013
572.445	65157.39308
572.622	65204.80393
572.798	65143.86013
572.974	65198.0266
573.151	65254.54909
573.327	65195.76781
573.503	65094.28831
573.68	65256.81211
573.856	65250.02354
574.032	65254.54909
574.208	65134.84135
574.385	65159.64913
574.561	65272.65787
574.737	65245.49864
574.913	65141.6052
575.089	65245.49864
575.266	65250.02354
575.442	65261.33865
575.618	65101.04359
575.794	65222.88396
575.97	65231.92787
576.146	65161.90535
576.322	65227.40559
576.499	65119.06462
576.675	65137.09581
576.851	65139.35042
577.027	65062.78239
577.203	65195.76781
577.379	65236.45081
577.555	65191.25072
577.731	65146.11522
577.907	64820.74918
578.083	65101.04359
578.259	65173.18881
578.435	65148.37047
578.611	65029.06005
578.786	65044.79278
578.962	65096.53991
579.138	65209.32297
579.314	65101.04359
579.49	65173.18881
579.666	65076.28116
579.842	65152.88146
580.017	65152.88146
580.193	65139.35042
580.369	65087.53445
580.545	65112.30555
580.72	65017.82704
580.896	65148.37047
581.072	65038.04925
581.248	65085.28347
581.423	65013.33492
581.599	65116.81144
581.775	65076.28116
581.95	65078.5315
582.126	65105.5479
582.302	65008.84341
582.477	65071.78094
582.653	65132.58706
582.829	65116.81144
583.004	65207.06337
583.18	65103.29567
583.355	65141.6052
583.531	65071.78094
583.706	65049.28925
583.882	65141.6052
584.057	65225.14469
584.233	65087.53445
584.408	64988.63928
584.584	65107.80029
584.759	65170.9318
584.935	65170.9318
585.11	65157.39308
585.285	65191.25072
585.461	65263.60216
585.636	65164.16172
585.812	65182.21848
585.987	65250.02354
586.162	65236.45081
586.338	65177.70332
586.513	65272.65787
586.688	65333.85311
586.863	65211.58272
587.039	65268.12969
587.214	65243.23644
587.389	65238.71252
587.564	65279.45137
587.74	65236.45081
587.915	65404.26478
588.09	65349.73837
588.265	65286.24637
588.44	65363.36086
588.615	65347.46854
588.791	65336.12193
588.966	65390.62404
589.141	65408.81306
589.316	65329.31597
589.491	65342.9294
589.666	65313.44124
589.841	65277.18671
590.016	65388.35118
590.191	65304.37363
590.366	65436.11704
590.541	65454.3334
590.716	65404.26478
590.891	65381.53361
591.066	65477.11936
591.241	65452.05575
591.416	65470.28176
591.591	65458.88921
591.766	65458.88921
591.941	65573.01071
592.116	65586.73484
592.29	65468.00291
592.465	65515.89531
592.64	65630.23694
592.815	65563.86484
592.99	65614.20233
593.165	65573.01071
593.339	65595.88782
593.514	65566.15104
593.689	65488.51884
593.864	65570.72398
594.038	65598.17651
594.213	65490.79925
594.388	65573.01071
594.562	65550.15134
594.737	65488.51884
594.912	65568.43742
595.086	65625.65473
595.261	65577.58471
595.436	65506.76703
595.61	65527.3096
595.785	65520.4605
595.959	65515.89531
596.134	65557.00729
596.309	65554.7218
596.483	65561.57881
596.658	65550.15134
596.832	65577.58471
597.007	65452.05575
597.181	65609.62263
597.356	65525.02639
597.53	65614.20233
597.704	65586.73484
597.879	65545.58158
598.053	65550.15134
598.228	65463.44571
598.402	65461.16738
598.576	65561.57881
598.751	65477.11936
598.925	65536.44418
599.1	65536.44418
599.274	65582.15942
599.448	65547.86637
599.622	65454.3334
599.797	65531.87654
599.971	65531.87654
600.145	65408.81306
600.32	65504.4854
600.494	65529.59298
600.668	65481.67863
600.842	65470.28176
601.016	65579.87197
601.191	65481.67863
601.365	65272.65787
601.539	65502.20394
601.713	65536.44418
601.887	65445.22384
602.061	65561.57881
602.235	65483.95853
602.409	65554.7218
602.583	65493.07984
602.758	65616.49245
602.932	55289.46031
603.106	65618.78275
603.28	4570.77134
603.454	65522.74336
603.628	4599.39611
603.802	65573.01071
603.976	4447.51905
604.149	65538.72827
604.323	4184.41949
604.497	65570.72398
604.671	4202.70554
604.845	65522.74336
605.019	4441.72909
605.193	65573.01071
605.367	4248.175
605.541	65518.17782
605.714	4138.16513
605.888	65472.56079
606.062	4107.81664
606.236	65646.28036
606.41	4049.96774
606.583	65554.7218
606.757	4090.06764
606.931	65522.74336
607.105	4304.41422
607.278	65561.57881
607.452	4300.74998
607.626	65472.56079
607.799	4360.44191
607.973	65575.29762
608.147	4337.99715
608.32	65573.01071
608.494	4274.71653
608.668	65554.7218
608.841	4297.17156
609.015	65465.72422
609.188	4288.41558
609.362	65627.94574
609.535	4448.09995
609.709	65566.15104
609.882	4463.60882
610.056	65502.20394
610.229	4482.45941
610.403	65534.16027
610.576	4545.36557
610.75	65502.20394
610.923	4621.08206
611.097	65589.02282
611.27	4543.74938
611.443	65522.74336
611.617	4729.10657
611.79	65627.94574
611.963	4702.64753
612.137	65531.87654
612.31	4579.29509
612.483	65554.7218
612.657	4681.66827
612.83	65595.88782
613.003	4868.67223
613.177	65554.7218
613.35	5025.34336
613.523	65531.87654
613.696	5043.71795
613.869	65646.28036
614.043	5133.78629
614.216	65531.87654
614.389	5224.66218
614.562	65493.07984
614.735	5251.11734
614.908	65557.00729
615.082	5399.27885
615.255	65536.44418
615.428	5307.88797
615.601	65577.58471
615.774	5462.73166
615.947	44023.38233
616.12	5393.13238
616.293	5460.27492
616.466	5602.9275
616.639	5788.84529
616.812	5877.98422
616.985	5875.59234
617.158	5900.21324
617.331	5959.31411
617.504	6089.78234
617.677	6220.47584
617.85	6123.7807
618.022	6412.57501
618.195	6388.19246
618.368	6436.25792
618.541	6278.07071
618.714	6443.40238
618.887	6549.9905
619.059	6641.81972
619.232	6650.62325
619.405	6702.72253
619.578	6705.87137
619.751	7003.99202
619.923	6979.14942
620.096	7073.06104
620.269	7223.25976
620.441	7139.62416
620.614	7393.48238
620.787	7561.41575
620.96	7645.90781
621.132	7740.44483
621.305	7711.16989
621.477	7751.79907
621.65	7779.70326
621.823	7965.24625
621.995	7991.81989
622.168	7984.75271
622.34	7760.64474
622.513	7854.91126
622.685	8137.28668
622.858	8278.62207
623.03	8337.803
623.203	8528.66514
623.375	8537.32061
623.548	8862.79423
623.72	8927.57593
623.893	8978.24523
624.065	9313.47349
624.238	9467.87401
624.41	9491.61268
624.582	9640.21968
624.755	10118.45298
624.927	9940.57516
625.1	10050.58784
625.272	10443.75703
625.444	10370.99773
625.617	10639.26344
625.789	10623.75737
625.961	10822.12957
626.133	11050.53
626.306	11290.72928
626.478	11234.32101
626.65	11605.26238
626.822	11745.51178
626.995	11877.04261
627.167	11662.68095
627.339	11964.8481
627.511	12202.57787
627.683	12370.1534
627.855	12270.10759
628.027	12468.49941
628.2	12390.56706
628.372	12691.78438
628.544	12564.9882
628.716	13002.41757
628.888	12967.62573
629.06	12771.05055
629.232	13055.47188
629.404	13353.76722
629.576	13120.56711
629.748	13252.61209
629.92	13209.24355
630.092	13246.37819
630.264	13281.14607
630.436	13753.96106
630.608	13455.71596
630.78	13546.05474
630.952	13546.77379
631.124	13390.94856
631.295	13591.24535
631.467	13475.8734
631.639	13289.04756
631.811	13396.65349
631.983	13287.42979
632.155	13033.1875
632.326	13020.58065
632.498	13088.67737
632.67	12619.68498
632.842	13010.74608
633.014	12823.14934
633.185	12530.54969
633.357	12415.26901
633.529	12367.07908
633.7	12130.83558
633.872	11956.1877
634.044	11789.17283
634.215	11738.53883
634.387	11650.08326
634.559	11652.75684
634.73	11263.51624
634.902	11307.19588
635.074	10917.25892
635.245	11307.05271
635.417	10818.07381
635.588	10516.41279
635.76	10534.72792
635.931	10819.19161
636.103	10490.41513
636.274	10432.3027
636.446	10152.12716
636.617	9866.78852
636.789	9806.71268
636.96	9799.89612
637.132	9794.16016
637.303	9792.8682
637.474	9719.93694
637.646	9515.24081
637.817	9481.39385
637.989	9220.03973
638.16	9287.20314
638.331	9344.22894
638.503	9145.42992
638.674	9231.60319
638.845	9076.12643
639.017	8995.51602
639.188	8909.07106
639.359	9096.54874
639.53	8925.61457
639.702	8851.10151
639.873	8946.81999
640.044	8884.1965
640.215	8776.57761
640.387	8723.03138
640.558	8777.49848
640.729	8790.64654
640.9	8717.24664
641.071	8593.43841
641.242	8670.59094
641.413	8643.60601
641.585	8309.64066
641.756	8390.42677
641.927	8594.28801
642.098	8557.61323
642.269	8292.98758
642.44	8403.29984
642.611	8086.28021
642.782	8157.71383
642.953	8297.18627
643.124	8249.39021
643.295	8206.46615
643.466	8189.60859
643.637	8030.97526
643.808	8206.69115
643.979	7969.0596
644.15	8065.0963
644.32	8105.29946
644.491	7982.05478
644.662	8252.99613
644.833	8031.24632
645.004	7926.52201
645.175	7995.88336
645.346	7742.44378
645.516	7989.0414
645.687	7619.97185
645.858	7824.4105
646.029	7792.72775
646.199	7700.52979
646.37	7722.60106
646.541	7594.06058
646.712	7562.10114
646.882	7674.37936
647.053	7556.48042
647.224	7386.0188
647.394	7364.31101
647.565	7486.22133
647.736	7397.31374
647.906	7313.97164
648.077	7259.52212
648.248	7335.99819
648.418	7290.50191
648.589	7248.62531
648.759	7272.5798
648.93	7367.9873
649.1	7060.40115
649.271	7131.38923
649.441	7235.63948
649.612	7178.60714
649.782	6972.0231
649.953	6939.71231
650.123	6924.92918
650.294	6991.70177
650.464	6870.28442
650.635	6880.97958
650.805	6730.64426
650.975	7062.10048
651.146	6762.90324
651.316	6823.03463
651.487	6878.90379
651.657	6763.48694
651.827	6705.60288
651.998	6842.37605
652.168	6741.04786
652.338	6733.52038
652.508	6559.74571
652.679	6622.67312
652.849	6697.63379
653.019	6516.60465
653.189	6619.72359
653.36	6478.93613
653.53	6379.10262
653.7	6351.09095
653.87	6379.23164
654.04	6290.91957
654.211	6538.89925
654.381	6585.82216
654.551	6388.31664
654.721	6195.75947
654.891	6213.65227
655.061	6171.09982
655.231	6359.7152
655.401	6277.70048
655.571	6261.90319
655.741	6373.46089
655.911	6172.84292
656.081	5960.81058
656.251	6224.99276
656.421	6240.59336
656.591	6067.13144
656.761	6011.59439
656.931	6071.41555
657.101	6302.13165
657.271	6145.73507
657.441	6090.42737
657.611	5996.18022
657.781	5972.66764
657.951	6023.99568
658.121	6082.92134
658.291	5872.46059
658.46	5854.7733
658.63	5888.14935
658.8	6043.91522
658.97	5838.70774
659.14	5884.46041
659.309	5892.50598
659.479	6036.74729
659.649	5938.39639
659.819	5801.26045
659.988	5993.18758
660.158	5712.57394
660.328	5841.20904
660.497	5786.43311
660.667	5695.12199
660.837	5837.12653
661.006	5741.14218
661.176	5886.155
661.346	5623.53692
661.515	5821.86146
661.685	5597.44719
661.854	5728.02151
662.024	5528.29948
662.194	5659.42651
662.363	5682.81254
662.533	5784.15701
662.702	5673.39421
662.872	5662.07756
663.041	5546.72409
663.211	5653.55854
663.38	5675.87581
663.55	5749.6539
663.719	5511.9217
663.889	5643.25861
664.058	5384.71733
664.227	5631.10869
664.397	5379.90154
664.566	5361.22497
664.735	5704.08489
664.905	5867.66761
665.074	5450.2964
665.244	5559.28841
665.413	5490.02367
665.582	5581.53797
665.751	5398.58916
665.921	5474.65595
666.09	5418.19209
666.259	5675.4107
666.428	5462.82361
666.598	5489.92474
666.767	5381.72454
666.936	5442.06511
667.105	5401.08658
667.275	5348.91427
667.444	5467.58568
667.613	5392.71133
667.782	5416.21459
667.951	5560.14996
668.12	5634.54881
668.289	5340.70955
668.458	5233.3731
668.628	5538.96833
668.797	5564.36157
668.966	5441.0093
669.135	5316.39809
669.304	5454.60108
669.473	5493.52663
669.642	5459.41911
669.811	5441.20392
669.98	5544.92509
670.149	5544.67504
670.318	5640.49809
670.487	5579.86596
670.656	5547.66411
670.824	5382.20486
670.993	5541.09015
671.162	5408.14109
671.331	5373.97864
671.5	5519.76958
671.669	5439.88992
671.838	5431.27074
672.007	5510.60566
672.175	5333.87607
672.344	5441.66697
672.513	5472.60659
672.682	5627.50316
672.85	5569.71971
673.019	5244.79201
673.188	5557.85152
673.357	5479.3973
673.525	5558.34805
673.694	5603.40688
673.863	5358.49291
674.032	5467.33595
674.2	5494.53411
674.369	5506.82885
674.537	5443.66686
674.706	5695.14566
674.875	5444.41255
675.043	5579.57415
675.212	5547.46755
675.381	5531.08589
675.549	5512.09768
675.718	5538.56869
675.886	5418.88484
676.055	5516.34177
676.223	5495.06181
676.392	5353.24507
676.56	5393.58775
676.729	5425.49816
676.897	5587.58546
677.066	5557.16976
677.234	5399.10834
677.403	5506.1458
677.571	5453.12508
677.739	5421.43551
677.908	5239.02179
678.076	5349.15489
678.244	5356.69154
678.413	5273.51037
678.581	5233.75498
678.75	5304.97739
678.918	5379.33733
679.086	5336.66374
679.254	5165.37377
679.423	5255.24138
679.591	5219.60999
679.759	5180.10598
679.928	5240.40758
680.096	5054.67946
680.264	5078.64756
680.432	5142.65961
680.6	5141.27433
680.769	4996.65833
680.937	5074.52778
681.105	5204.32082
681.273	5043.7615
681.441	4966.79564
681.609	4771.00045
681.777	4931.77146
681.945	4866.60907
682.114	4995.82914
682.282	4857.18469
682.45	4691.02523
682.618	4755.64127
682.786	4808.74579
682.954	4711.78001
683.122	4897.60351
683.29	4692.47713
683.458	4673.74133
683.626	4757.99994
683.794	4728.29996
683.962	4723.30594
684.13	4632.24142
684.298	4777.40518
684.465	4469.18477
684.633	4476.38471
684.801	4649.5009
684.969	4373.7343
685.137	4449.2446
685.305	4593.20748
685.473	4413.67692
685.64	4406.76276
685.808	4528.19573
685.976	4268.54672
686.144	4299.30981
686.312	4132.40877
686.479	4209.29689
686.647	4150.21066
686.815	4190.16053
686.983	4173.10191
687.15	4099.08633
687.318	4043.83797
687.486	4155.45366
687.653	3743.51312
687.821	3921.41482
687.989	4008.75326
688.156	3945.91716
688.324	3843.44742
688.492	3869.83475
688.659	3817.59427
688.827	3740.0785
688.994	3727.09197
689.162	3761.10782
689.329	3534.41155
689.497	3689.58715
689.665	3577.70726
689.832	3564.20401
690	3573.19046
690.167	3539.32629
690.335	3460.50117
690.502	3544.2982
690.669	3389.93153
690.837	3445.9735
691.004	3320.97684
691.172	3318.6966
691.339	3294.32602
691.507	3313.90969
691.674	3216.25182
691.841	3324.54726
692.009	3232.69224
692.176	3278.78235
692.343	3104.95354
692.511	3106.22931
692.678	3161.69285
692.845	2995.6874
693.013	3156.40956
693.18	2927.51333
693.347	2926.8787
693.514	3120.9882
693.682	2844.29712
693.849	2940.9804
694.016	2795.08047
694.183	2949.33396
694.35	2871.39377
694.518	2671.35636
694.685	2835.46394
694.852	2841.51295
695.019	2758.82221
695.186	2658.04164
695.353	2531.35032
695.52	2575.46814
695.687	2543.1495
695.855	2721.31515
696.022	2499.32553
696.189	2562.17498
696.356	2640.29469
696.523	2639.48246
696.69	2373.07959
696.857	2527.95604
697.024	2343.3374
697.191	2340.4202
697.358	2388.46729
697.525	2217.92474
697.692	2244.54008
697.858	2298.58059
698.025	2129.56681
698.192	2273.93093
698.359	2241.32066
698.526	2134.79424
698.693	2219.1482
698.86	2236.80952
699.027	2207.59759
699.193	2142.54856
699.36	2109.66238
699.527	2237.50053
699.694	2100.8504
699.861	2131.08266
700.027	1999.20592
700.194	1893.57025
700.361	1935.5335
700.528	2015.01176
700.694	2005.06662
700.861	1887.90487
701.028	1957.9016
701.195	1840.93221
701.361	1827.45011
701.528	1918.85003
701.694	1915.81556
701.861	1946.416
702.028	1823.3056
702.194	1802.43375
702.361	1799.49311
702.528	1742.83815
702.694	1755.55143
702.861	1678.98461
703.027	1756.14104
703.194	1732.85848
703.36	1636.54173
703.527	1893.83285
703.693	1694.91284
703.86	1640.00639
704.026	1818.22914
704.193	1765.01734
704.359	1652.76576
704.526	1655.154
