Data from Sun covered_USB4F034991__1__09-50-09-976.txt Node

Date: Tue Sep 23 09:50:09 EDT 2025
User: brett
Spectrometer: USB4F03499
Trigger mode: 4
Integration Time (sec): 5.000000E-1
Scans to average: 1
Electric dark correction enabled: true
Nonlinearity correction enabled: true
Boxcar width: 0
XAxis mode: Wavelengths
Number of Pixels in Spectrum: 3648
>>>>>Begin Spectral Data<<<<<
0	-627.52344
0.225	-627.52344
0.449	-627.52344
0.674	-676.80878
0.898	-604.08677
1.123	32.64348
1.347	-45.3033
1.572	30.3539
1.796	12.03079
2.021	21.19378
2.245	124.08122
2.469	32.64348
2.694	44.08872
2.918	-10.88928
3.143	-102.75129
3.367	-17.76882
3.591	-121.15896
3.815	69.25256
4.04	171.97363
4.264	-167.23022
4.488	105.81626
4.712	146.89669
4.936	0.57301
5.161	-245.7241
5.385	-248.03607
5.609	57.81711
5.833	244.80626
6.057	446.46735
6.281	41.80003
6.505	69.25256
6.729	119.51603
6.953	126.36355
7.177	96.67957
7.401	-111.95364
7.625	201.58305
7.849	-75.16194
8.073	119.51603
8.297	137.7726
8.521	-68.26874
8.744	-45.3033
8.968	-10.88928
9.192	-36.12223
9.416	73.82549
9.64	-38.41723
9.863	128.64571
10.087	-59.08037
10.311	-158.00999
10.535	-26.94408
10.758	197.02965
10.982	-125.76273
11.205	-56.78374
11.429	39.51116
11.653	73.82549
11.876	158.2979
12.1	-190.29395
12.323	-98.15122
12.547	105.81626
12.77	-20.06236
12.994	96.67957
13.217	98.964
13.441	-86.65428
13.664	206.13577
13.887	39.51116
14.111	297.04714
14.334	235.71175
14.557	-111.95364
14.781	224.33979
15.004	187.92078
15.227	-31.53279
15.451	2.86492
15.674	-45.3033
15.897	242.53289
16.12	92.11016
16.343	137.7726
16.567	-13.18228
16.79	89.8252
17.013	450.98411
17.236	-26.94408
17.459	137.7726
17.682	-15.47546
17.905	237.98563
18.128	101.24826
18.351	82.96924
18.574	183.36531
18.797	178.80916
19.02	32.64348
19.243	80.68357
19.466	181.08732
19.689	124.08122
19.911	-24.64999
20.134	-29.23834
20.357	222.06488
20.58	44.08872
20.803	-77.46004
21.025	137.7726
21.248	149.17728
21.471	235.71175
21.694	46.37723
21.916	-8.59646
22.139	92.11016
22.362	-139.57851
22.584	128.64571
22.807	57.81711
23.029	-224.92496
23.252	119.51603
23.475	1019.60544
23.697	-151.09678
23.92	-79.75832
24.142	128.64571
24.365	69.25256
24.587	-109.65277
24.809	60.10456
25.032	310.66056
25.254	94.39495
25.477	-65.97137
25.699	103.53235
25.921	76.1117
26.144	73.82549
26.366	-10.88928
26.588	308.39208
26.81	41.80003
27.033	-38.41723
27.255	89.8252
27.477	48.66556
27.699	101.24826
27.921	-38.41723
28.144	-114.25469
28.366	171.97363
28.588	-162.61973
28.81	-160.31476
29.032	34.93289
29.254	278.88651
29.476	-13.18228
29.698	48.66556
29.92	18.9033
30.142	21.19378
30.364	41.80003
30.586	174.25231
30.808	-160.31476
31.029	50.95372
31.251	-38.41723
31.473	135.49114
31.695	181.08732
31.917	-164.92488
32.139	187.92078
32.36	174.25231
32.582	-33.82742
32.804	48.66556
33.026	240.25934
33.247	-107.35209
33.469	-98.15122
33.691	-70.56629
33.912	-116.55593
34.134	169.69477
34.355	-88.9533
34.577	41.80003
34.798	-22.35609
35.02	55.52949
35.242	-45.3033
35.463	-137.27541
35.684	-91.2525
35.906	-52.19101
36.127	-6.30382
36.349	187.92078
36.57	146.89669
36.792	28.06414
37.013	73.82549
37.234	206.13577
37.456	222.06488
37.677	142.33499
37.898	98.964
38.119	-139.57851
38.341	-13.18228
38.562	-114.25469
38.783	25.7742
39.004	41.80003
39.225	-201.83288
39.447	-79.75832
39.668	-33.82742
39.889	-54.48728
40.11	-82.05679
40.331	228.88908
40.552	-72.86402
40.773	276.61568
40.994	-84.35544
41.215	16.61264
41.436	-31.53279
41.657	-88.9533
41.878	-52.19101
42.099	-167.23022
42.32	-13.18228
42.54	105.81626
42.761	151.4577
42.982	-17.76882
43.203	-211.06744
43.424	-33.82742
43.645	203.8595
43.865	149.17728
44.086	185.64313
44.307	-65.97137
44.527	-26.94408
44.748	7.44822
44.969	-95.85146
45.189	53.24169
45.41	-65.97137
45.631	203.8595
45.851	80.68357
46.072	-86.65428
46.292	156.01801
46.513	-86.65428
46.733	112.66694
46.954	269.80216
47.174	-206.44978
47.395	39.51116
47.615	128.64571
47.836	76.1117
48.056	-40.7124
48.276	-22.35609
48.497	208.41187
48.717	117.23318
48.937	89.8252
49.158	66.96582
49.378	-70.56629
49.598	119.51603
49.818	39.51116
50.038	142.33499
50.259	64.67891
50.479	-72.86402
50.699	80.68357
50.919	23.48408
51.139	57.81711
51.359	-45.3033
51.579	-61.37719
51.799	76.1117
52.02	-49.89493
52.24	85.25474
52.46	-45.3033
52.68	103.53235
52.899	-36.12223
53.119	62.39182
53.339	-82.05679
53.559	-10.88928
53.779	178.80916
53.999	299.31646
54.219	408.04866
54.439	-8.59646
54.658	-245.7241
54.878	203.8595
55.098	165.13654
55.318	126.36355
55.538	190.19825
55.757	94.39495
55.977	-222.6149
56.197	57.81711
56.416	-105.0516
56.636	151.4577
56.855	-59.08037
57.075	60.10456
57.295	-266.53873
57.514	-10.88928
57.734	101.24826
57.953	-31.53279
58.173	-98.15122
58.392	-84.35544
58.612	-4.01137
58.831	30.3539
59.051	153.73794
59.27	130.92769
59.489	-146.48891
59.709	94.39495
59.928	-134.9725
60.147	14.32181
60.367	89.8252
60.586	169.69477
60.805	-56.78374
61.024	-114.25469
61.244	37.22211
61.463	-84.35544
61.682	-20.06236
61.901	-128.06489
62.12	160.57762
62.34	25.7742
62.559	-15.47546
62.778	306.12342
62.997	160.57762
63.216	-294.31581
63.435	-107.35209
63.654	98.964
63.873	98.964
64.092	-68.26874
64.311	140.05388
64.53	247.07946
64.749	-134.9725
64.968	25.7742
65.187	-95.85146
65.405	-15.47546
65.624	57.81711
65.843	-29.23834
66.062	171.97363
66.281	185.64313
66.499	-24.64999
66.718	-132.66978
66.937	2.86492
67.156	46.37723
67.374	274.34467
67.593	153.73794
67.812	-24.64999
68.03	197.02965
68.249	73.82549
68.467	78.39772
68.686	87.54005
68.905	333.33625
69.123	-45.3033
69.342	-77.46004
69.56	-95.85146
69.779	-56.78374
69.997	219.78981
70.216	16.61264
70.434	-59.08037
70.652	114.95014
70.871	-17.76882
71.089	73.82549
71.307	-176.45345
71.526	-137.27541
71.744	-121.15896
71.962	-10.88928
72.181	-181.0662
72.399	-91.2525
72.617	30.3539
72.835	153.73794
73.054	-26.94408
73.272	303.8546
73.49	-45.3033
73.708	2.86492
73.926	-8.59646
74.144	-132.66978
74.362	21.19378
74.58	9.73959
74.798	-70.56629
75.016	87.54005
75.234	9.73959
75.452	89.8252
75.67	16.61264
75.888	34.93289
76.106	346.93369
76.324	-167.23022
76.542	-109.65277
76.76	114.95014
76.978	121.79871
77.196	-102.75129
77.413	-40.7124
77.631	240.25934
77.849	-160.31476
78.067	-15.47546
78.284	-100.45116
78.502	39.51116
78.72	-47.59902
78.938	2.86492
79.155	-130.36724
79.373	87.54005
79.59	71.53911
79.808	340.13572
80.026	-26.94408
80.243	-22.35609
80.461	315.19704
80.678	328.80245
80.896	103.53235
81.113	-77.46004
81.331	-109.65277
81.548	794.65612
81.766	-1.71909
81.983	306.12342
82.2	57.81711
82.418	-146.48891
82.635	242.53289
82.852	644.60393
83.07	219.78981
83.287	21.19378
83.504	94.39495
83.722	237.98563
83.939	119.51603
84.156	181.08732
84.373	-114.25469
84.591	30.3539
84.808	30.3539
85.025	101.24826
85.242	-40.7124
85.459	44.08872
85.676	199.30644
85.893	-111.95364
86.11	-40.7124
86.327	260.71511
86.544	-22.35609
86.761	48.66556
86.978	25.7742
87.195	62.39182
87.412	48.66556
87.629	-17.76882
87.846	-65.97137
88.063	383.16442
88.28	135.49114
88.497	-68.26874
88.713	119.51603
88.93	-70.56629
89.147	-162.61973
89.364	165.13654
89.58	60.10456
89.797	165.13654
90.014	-24.64999
90.231	303.8546
90.447	-29.23834
90.664	85.25474
90.881	-63.67419
91.097	208.41187
91.314	162.85717
91.53	-13.18228
91.747	21.19378
91.963	-146.48891
92.18	-63.67419
92.396	0.57301
92.613	103.53235
92.829	-43.00776
93.046	-160.31476
93.262	-77.46004
93.479	96.67957
93.695	44.08872
93.911	16.61264
94.128	-56.78374
94.344	126.36355
94.56	135.49114
94.777	-137.27541
94.993	-52.19101
95.209	-88.9533
95.426	446.46735
95.642	-121.15896
95.858	76.1117
96.074	-75.16194
96.29	-52.19101
96.506	-197.21674
96.723	317.46502
96.939	-22.35609
97.155	9.73959
97.371	-102.75129
97.587	-88.9533
97.803	71.53911
98.019	171.97363
98.235	178.80916
98.451	-88.9533
98.667	317.46502
98.883	34.93289
99.099	-98.15122
99.315	-47.59902
99.53	171.97363
99.746	-43.00776
99.962	21.19378
100.178	103.53235
100.394	32.64348
100.61	71.53911
100.825	-93.55189
101.041	119.51603
101.257	-49.89493
101.473	-36.12223
101.688	18.9033
101.904	-45.3033
102.12	-56.78374
102.335	-68.26874
102.551	57.81711
102.766	156.01801
102.982	-190.29395
103.198	165.13654
103.413	39.51116
103.629	-88.9533
103.844	80.68357
104.06	117.23318
104.275	156.01801
104.49	231.16348
104.706	89.8252
104.921	1790.75783
105.137	23.48408
105.352	151.4577
105.567	-15.47546
105.783	71.53911
105.998	57.81711
106.213	217.51456
106.429	-100.45116
106.644	44.08872
106.859	-63.67419
107.074	527.67098
107.29	158.2979
107.505	-162.61973
107.72	212.96356
107.935	260.71511
108.15	110.38355
108.365	-187.98673
108.58	12.03079
108.795	137.7726
109.01	-6.30382
109.226	-56.78374
109.441	335.60291
109.656	-61.37719
109.871	153.73794
110.085	-54.48728
110.3	46.37723
110.515	128.64571
110.73	128.64571
110.945	32.64348
111.16	151.4577
111.375	-167.23022
111.59	-174.14736
111.804	-22.35609
112.019	-79.75832
112.234	-187.98673
112.449	-146.48891
112.663	199.30644
112.878	137.7726
113.093	-160.31476
113.308	103.53235
113.522	117.23318
113.737	-213.37655
113.951	-105.0516
114.166	71.53911
114.381	140.05388
114.595	76.1117
114.81	328.80245
115.024	-98.15122
115.239	-20.06236
115.453	-148.79275
115.668	-40.7124
115.882	-13.18228
116.097	-194.90896
116.311	-174.14736
116.525	69.25256
116.74	-259.5988
116.954	212.96356
117.169	12.03079
117.383	78.39772
117.597	-93.55189
117.811	-95.85146
118.026	183.36531
118.24	340.13572
118.454	96.67957
118.668	290.23816
118.883	-36.12223
119.097	12.03079
119.311	2.86492
119.525	-45.3033
119.739	25.7742
119.953	-6.30382
120.167	278.88651
120.381	37.22211
120.595	124.08122
120.809	80.68357
121.023	2.86492
121.237	-185.6797
121.451	-123.46075
121.665	64.67891
121.879	76.1117
122.093	253.89805
122.307	-148.79275
122.521	-1.71909
122.735	210.6878
122.949	-61.37719
123.163	-224.92496
123.376	53.24169
123.59	394.47789
123.804	64.67891
124.018	-111.95364
124.231	41.80003
124.445	-72.86402
124.659	208.41187
124.872	96.67957
125.086	292.50799
125.3	-17.76882
125.513	89.8252
125.727	178.80916
125.94	9.73959
126.154	-121.15896
126.368	-109.65277
126.581	25.7742
126.795	-79.75832
127.008	-171.84146
127.222	34.93289
127.435	-148.79275
127.648	-52.19101
127.862	0.57301
128.075	-86.65428
128.289	-59.08037
128.502	-93.55189
128.715	-59.08037
128.929	-107.35209
129.142	21.19378
129.355	0.57301
129.568	55.52949
129.782	-77.46004
129.995	87.54005
130.208	-77.46004
130.421	62.39182
130.634	-111.95364
130.848	98.964
131.061	500.62611
131.274	62.39182
131.487	-75.16194
131.7	-20.06236
131.913	162.85717
132.126	-47.59902
132.339	240.25934
132.552	353.73017
132.765	82.96924
132.978	215.23915
133.191	28.06414
133.404	-70.56629
133.617	-176.45345
133.83	92.11016
134.043	-98.15122
134.255	-164.92488
134.468	185.64313
134.681	57.81711
134.894	-84.35544
135.107	-134.9725
135.319	-22.35609
135.532	-40.7124
135.745	-29.23834
135.958	-118.85735
136.17	30.3539
136.383	176.53082
136.596	-123.46075
136.808	-88.9533
137.021	-1.71909
137.233	-63.67419
137.446	-102.75129
137.659	-107.35209
137.871	642.35918
138.084	151.4577
138.296	233.4377
138.509	-10.88928
138.721	-132.66978
138.934	-174.14736
139.146	98.964
139.358	18.9033
139.571	439.69098
139.783	130.92769
139.996	-77.46004
140.208	-54.48728
140.42	169.69477
140.632	-8.59646
140.845	-6.30382
141.057	-45.3033
141.269	126.36355
141.481	7.44822
141.694	-213.37655
141.906	-167.23022
142.118	16.61264
142.33	217.51456
142.542	-52.19101
142.754	87.54005
142.967	208.41187
143.179	14.32181
143.391	237.98563
143.603	32.64348
143.815	167.41574
144.027	-178.75973
144.239	258.44293
144.451	18.9033
144.663	2.86492
144.875	174.25231
145.086	299.31646
145.298	28.06414
145.51	-252.66059
145.722	181.08732
145.934	-52.19101
146.146	55.52949
146.358	96.67957
146.569	-68.26874
146.781	9.73959
146.993	-194.90896
147.205	171.97363
147.416	21.19378
147.628	-17.76882
147.84	21.19378
148.051	-98.15122
148.263	7.44822
148.475	-52.19101
148.686	-102.75129
148.898	199.30644
149.109	149.17728
149.321	-271.16632
149.532	16.61264
149.744	274.34467
149.955	82.96924
150.167	-77.46004
150.378	-190.29395
150.59	-79.75832
150.801	12.03079
151.013	-10.88928
151.224	-43.00776
151.435	73.82549
151.647	331.06943
151.858	62.39182
152.069	212.96356
152.281	53.24169
152.492	151.4577
152.703	-141.88179
152.914	16.61264
153.126	-84.35544
153.337	28.06414
153.548	-1.71909
153.759	-61.37719
153.97	-208.75852
154.181	-52.19101
154.392	110.38355
154.604	-130.36724
154.815	-114.25469
155.026	50.95372
155.237	80.68357
155.448	247.07946
155.659	251.62535
155.87	30.3539
156.081	210.6878
156.292	-88.9533
156.502	-59.08037
156.713	108.09999
156.924	48.66556
157.135	-125.76273
157.346	110.38355
157.557	247.07946
157.768	-22.35609
157.978	-61.37719
158.189	-45.3033
158.4	-171.84146
158.611	108.09999
158.821	251.62535
159.032	80.68357
159.243	121.79871
159.453	21.19378
159.664	-49.89493
159.875	144.61593
160.085	-43.00776
160.296	85.25474
160.507	-63.67419
160.717	-43.00776
160.928	73.82549
161.138	-176.45345
161.349	48.66556
161.559	46.37723
161.77	-63.67419
161.98	-26.94408
162.19	-22.35609
162.401	2.86492
162.611	240.25934
162.822	16.61264
163.032	-75.16194
163.242	-109.65277
163.453	16.61264
163.663	-213.37655
163.873	276.61568
164.084	-75.16194
164.294	53.24169
164.504	98.964
164.714	-201.83288
164.924	153.73794
165.135	-114.25469
165.345	-61.37719
165.555	2.86492
165.765	183.36531
165.975	144.61593
166.185	-43.00776
166.395	80.68357
166.605	98.964
166.815	-111.95364
167.025	-132.66978
167.235	-36.12223
167.445	-128.06489
167.655	-213.37655
167.865	-146.48891
168.075	-79.75832
168.285	16.61264
168.495	-15.47546
168.705	89.8252
168.915	208.41187
169.124	-15.47546
169.334	57.81711
169.544	-75.16194
169.754	-75.16194
169.964	240.25934
170.173	7.44822
170.383	96.67957
170.593	-164.92488
170.802	149.17728
171.012	-121.15896
171.222	-236.47813
171.431	-105.0516
171.641	-79.75832
171.851	-167.23022
172.06	-204.14124
172.27	-107.35209
172.479	153.73794
172.689	-45.3033
172.898	181.08732
173.108	-128.06489
173.317	414.83184
173.527	-72.86402
173.736	-45.3033
173.945	190.19825
174.155	112.66694
174.364	28.06414
174.574	32.64348
174.783	32.64348
174.992	101.24826
175.202	240.25934
175.411	133.2095
175.62	-54.48728
175.829	-128.06489
176.039	-17.76882
176.248	208.41187
176.457	5.15666
176.666	457.75805
176.875	-82.05679
177.084	112.66694
177.294	101.24826
177.503	7.44822
177.712	219.78981
177.921	144.61593
178.13	-20.06236
178.339	-162.61973
178.548	-176.45345
178.757	25.7742
178.966	16.61264
179.175	39.51116
179.384	-160.31476
179.593	16.61264
179.802	-181.0662
180.011	160.57762
180.219	46.37723
180.428	-84.35544
180.637	-52.19101
180.846	87.54005
181.055	-22.35609
181.263	-102.75129
181.472	-61.37719
181.681	37.22211
181.89	208.41187
182.098	256.17057
182.307	16.61264
182.516	53.24169
182.724	-70.56629
182.933	174.25231
183.142	57.81711
183.35	233.4377
183.559	41.80003
183.767	44.08872
183.976	-15.47546
184.184	-36.12223
184.393	103.53235
184.601	46.37723
184.81	114.95014
185.018	197.02965
185.227	69.25256
185.435	-54.48728
185.644	-17.76882
185.852	-79.75832
186.06	208.41187
186.269	-88.9533
186.477	178.80916
186.685	57.81711
186.894	224.33979
187.102	-33.82742
187.31	167.41574
187.518	149.17728
187.727	-98.15122
187.935	-116.55593
188.143	-148.79275
188.351	290.23816
188.559	-45.3033
188.768	260.71511
188.976	-49.89493
189.184	48.66556
189.392	98.964
189.6	48.66556
189.808	383.16442
190.016	185.64313
190.224	-93.55189
190.432	146.89669
190.64	-148.79275
190.848	-82.05679
191.056	137.7726
191.264	-10.88928
191.472	-84.35544
191.679	-36.12223
191.887	144.61593
192.095	-125.76273
192.303	-56.78374
192.511	105.81626
192.719	-36.12223
192.926	23.48408
193.134	-280.4238
193.342	62.39182
193.55	197.02965
193.757	76.1117
193.965	30.3539
194.173	217.51456
194.38	108.09999
194.588	-146.48891
194.796	16.61264
195.003	117.23318
195.211	-8.59646
195.418	-38.41723
195.626	-123.46075
195.833	114.95014
196.041	226.61452
196.248	0.57301
196.456	121.79871
196.663	351.46484
196.871	-217.99535
197.078	-17.76882
197.285	7.44822
197.493	-93.55189
197.7	260.71511
197.908	82.96924
198.115	-77.46004
198.322	-47.59902
198.529	94.39495
198.737	-254.97313
198.944	-84.35544
199.151	92.11016
199.358	14.32181
199.566	-187.98673
199.773	-15.47546
199.98	60.10456
200.187	12.03079
200.394	66.96582
200.601	146.89669
200.809	-31.53279
201.016	62.39182
201.223	60.10456
201.43	-139.57851
201.637	-45.3033
201.844	-215.68585
202.051	-192.60136
202.258	199.30644
202.465	-153.40099
202.672	-132.66978
202.878	-6.30382
203.085	-17.76882
203.292	-4.01137
203.499	103.53235
203.706	25.7742
203.913	-153.40099
204.12	-47.59902
204.326	-43.00776
204.533	117.23318
204.74	144.61593
204.947	140.05388
205.153	126.36355
205.36	85.25474
205.567	-38.41723
205.773	-164.92488
205.98	167.41574
206.187	-61.37719
206.393	-8.59646
206.6	87.54005
206.806	-79.75832
207.013	48.66556
207.22	103.53235
207.426	0.57301
207.633	119.51603
207.839	9.73959
208.046	2.86492
208.252	25.7742
208.458	130.92769
208.665	39.51116
208.871	-68.26874
209.078	572.69518
209.284	28.06414
209.49	-49.89493
209.697	-151.09678
209.903	-68.26874
210.109	-194.90896
210.316	78.39772
210.522	0.57301
210.728	-91.2525
210.934	491.60606
211.14	-10.88928
211.347	-222.6149
211.553	121.79871
211.759	71.53911
211.965	228.88908
212.171	-68.26874
212.377	430.65357
212.583	76.1117
212.789	-114.25469
212.996	53.24169
213.202	299.31646
213.408	-24.64999
213.614	16.61264
213.82	-13.18228
214.025	-26.94408
214.231	103.53235
214.437	-171.84146
214.643	87.54005
214.849	140.05388
215.055	39.51116
215.261	-8.59646
215.467	9.73959
215.672	137.7726
215.878	117.23318
216.084	-160.31476
216.29	187.92078
216.496	197.02965
216.701	98.964
216.907	-201.83288
217.113	-1.71909
217.318	153.73794
217.524	94.39495
217.73	124.08122
217.935	0.57301
218.141	183.36531
218.346	240.25934
218.552	130.92769
218.758	260.71511
218.963	183.36531
219.169	333.33625
219.374	237.98563
219.58	-79.75832
219.785	30.3539
219.991	276.61568
220.196	-217.99535
220.401	-6.30382
220.607	117.23318
220.812	324.26798
221.017	96.67957
221.223	82.96924
221.428	41.80003
221.633	290.23816
221.839	101.24826
222.044	-100.45116
222.249	194.75269
222.454	46.37723
222.66	60.10456
222.865	187.92078
223.07	96.67957
223.275	-70.56629
223.48	48.66556
223.686	140.05388
223.891	28.06414
224.096	-8.59646
224.301	108.09999
224.506	-33.82742
224.711	215.23915
224.916	231.16348
225.121	2.86492
225.326	-181.0662
225.531	-294.31581
225.736	71.53911
225.941	-192.60136
226.146	62.39182
226.351	41.80003
226.555	160.57762
226.76	12.03079
226.965	-61.37719
227.17	-121.15896
227.375	82.96924
227.58	-160.31476
227.784	12.03079
227.989	-137.27541
228.194	-52.19101
228.399	212.96356
228.603	0.57301
228.808	126.36355
229.013	94.39495
229.217	69.25256
229.422	60.10456
229.627	-102.75129
229.831	16.61264
230.036	124.08122
230.24	-107.35209
230.445	101.24826
230.649	73.82549
230.854	226.61452
231.058	89.8252
231.263	0.57301
231.467	149.17728
231.672	-54.48728
231.876	-52.19101
232.081	32.64348
232.285	126.36355
232.489	-31.53279
232.694	-22.35609
232.898	-13.18228
233.102	233.4377
233.307	-79.75832
233.511	-77.46004
233.715	187.92078
233.919	149.17728
234.124	7.44822
234.328	-56.78374
234.532	326.5353
234.736	251.62535
234.94	69.25256
235.145	16.61264
235.349	146.89669
235.553	110.38355
235.757	126.36355
235.961	-24.64999
236.165	-22.35609
236.369	199.30644
236.573	-43.00776
236.777	-75.16194
236.981	-59.08037
237.185	371.84685
237.389	-84.35544
237.593	-88.9533
237.797	128.64571
238.001	162.85717
238.205	256.17057
238.409	-38.41723
238.612	-178.75973
238.816	536.68087
239.02	18.9033
239.224	-243.41232
239.428	215.23915
239.631	57.81711
239.835	178.80916
240.039	0.57301
240.243	185.64313
240.446	475.81482
240.65	-130.36724
240.854	-141.88179
241.057	80.68357
241.261	-10.88928
241.464	-86.65428
241.668	224.33979
241.872	-65.97137
242.075	-29.23834
242.279	48.66556
242.482	23.48408
242.686	112.66694
242.889	69.25256
243.093	80.68357
243.296	178.80916
243.499	9.73959
243.703	324.26798
243.906	-98.15122
244.11	-52.19101
244.313	25.7742
244.516	101.24826
244.72	158.2979
244.923	32.64348
245.126	142.33499
245.33	21.19378
245.533	-153.40099
245.736	-132.66978
245.939	50.95372
246.142	185.64313
246.346	-77.46004
246.549	-86.65428
246.752	71.53911
246.955	178.80916
247.158	121.79871
247.361	114.95014
247.564	135.49114
247.767	292.50799
247.971	-8.59646
248.174	-8.59646
248.377	9.73959
248.58	60.10456
248.783	23.48408
248.985	-1.71909
249.188	262.98713
249.391	39.51116
249.594	-84.35544
249.797	-102.75129
250	158.2979
250.203	-33.82742
250.406	-100.45116
250.609	-20.06236
250.811	-56.78374
251.014	60.10456
251.217	-224.92496
251.42	-31.53279
251.622	306.12342
251.825	206.13577
252.028	-15.47546
252.231	37.22211
252.433	60.10456
252.636	117.23318
252.838	94.39495
253.041	439.69098
253.244	242.53289
253.446	267.53065
253.649	28.06414
253.851	199.30644
254.054	-118.85735
254.256	217.51456
254.459	-102.75129
254.661	46.37723
254.864	-33.82742
255.066	349.19935
255.269	-72.86402
255.471	340.13572
255.673	187.92078
255.876	-105.0516
256.078	-75.16194
256.281	-68.26874
256.483	64.67891
256.685	-52.19101
256.887	-47.59902
257.09	105.81626
257.292	-158.00999
257.494	235.71175
257.696	-91.2525
257.899	-15.47546
258.101	462.27321
258.303	71.53911
258.505	-100.45116
258.707	-13.18228
258.909	-26.94408
259.111	-224.92496
259.314	-8.59646
259.516	-194.90896
259.718	285.69801
259.92	-43.00776
260.122	140.05388
260.324	-98.15122
260.526	144.61593
260.728	112.66694
260.93	146.89669
261.131	-206.44978
261.333	-245.7241
261.535	82.96924
261.737	-70.56629
261.939	-49.89493
262.141	112.66694
262.343	151.4577
262.544	44.08872
262.746	222.06488
262.948	-194.90896
263.15	-65.97137
263.352	-43.00776
263.553	62.39182
263.755	-137.27541
263.957	269.80216
264.158	133.2095
264.36	-8.59646
264.562	181.08732
264.763	-153.40099
264.965	-123.46075
265.166	-15.47546
265.368	98.964
265.569	80.68357
265.771	-88.9533
265.972	78.39772
266.174	-59.08037
266.375	-56.78374
266.577	-59.08037
266.778	30.3539
266.98	322.00049
267.181	-36.12223
267.383	-162.61973
267.584	-15.47546
267.785	-52.19101
267.987	-52.19101
268.188	-43.00776
268.389	322.00049
268.591	-36.12223
268.792	-98.15122
268.993	37.22211
269.194	-95.85146
269.396	199.30644
269.597	201.58305
269.798	9.73959
269.999	7.44822
270.2	-8.59646
270.401	-63.67419
270.603	-118.85735
270.804	201.58305
271.005	197.02965
271.206	-43.00776
271.407	80.68357
271.608	171.97363
271.809	-4.01137
272.01	153.73794
272.211	34.93289
272.412	-47.59902
272.613	119.51603
272.814	-141.88179
273.015	-86.65428
273.216	-130.36724
273.416	44.08872
273.617	112.66694
273.818	7.44822
274.019	-45.3033
274.22	-20.06236
274.421	326.5353
274.621	50.95372
274.822	-43.00776
275.023	178.80916
275.224	-65.97137
275.424	119.51603
275.625	-52.19101
275.826	-24.64999
276.026	105.81626
276.227	71.53911
276.428	101.24826
276.628	21.19378
276.829	128.64571
277.029	-49.89493
277.23	23.48408
277.43	-4.01137
277.631	267.53065
277.831	-123.46075
278.032	-88.9533
278.232	82.96924
278.433	41.80003
278.633	96.67957
278.834	89.8252
279.034	228.88908
279.234	101.24826
279.435	-123.46075
279.635	190.19825
279.835	119.51603
280.036	60.10456
280.236	44.08872
280.436	-45.3033
280.637	-121.15896
280.837	176.53082
281.037	-93.55189
281.237	117.23318
281.438	16.61264
281.638	53.24169
281.838	21.19378
282.038	7.44822
282.238	144.61593
282.438	244.80626
282.638	-49.89493
282.838	37.22211
283.038	9.73959
283.239	53.24169
283.439	162.85717
283.639	228.88908
283.839	-6.30382
284.039	41.80003
284.238	171.97363
284.438	-123.46075
284.638	-70.56629
284.838	169.69477
285.038	-88.9533
285.238	-88.9533
285.438	-139.57851
285.638	66.96582
285.838	-63.67419
286.037	-22.35609
286.237	62.39182
286.437	-72.86402
286.637	-118.85735
286.836	-199.52472
287.036	-22.35609
287.236	103.53235
287.436	-61.37719
287.635	176.53082
287.835	73.82549
288.034	-107.35209
288.234	108.09999
288.434	41.80003
288.633	16.61264
288.833	-107.35209
289.032	-151.09678
289.232	133.2095
289.431	-128.06489
289.631	-176.45345
289.83	28.06414
290.03	60.10456
290.229	-155.7054
290.429	23.48408
290.628	103.53235
290.828	-109.65277
291.027	-70.56629
291.226	28.06414
291.426	-36.12223
291.625	89.8252
291.824	-43.00776
292.024	146.89669
292.223	-88.9533
292.422	-24.64999
292.621	-52.19101
292.821	-36.12223
293.02	53.24169
293.219	219.78981
293.418	278.88651
293.617	117.23318
293.817	-88.9533
294.016	197.02965
294.215	237.98563
294.414	-132.66978
294.613	-107.35209
294.812	44.08872
295.011	-98.15122
295.21	158.2979
295.409	94.39495
295.608	44.08872
295.807	-215.68585
296.006	28.06414
296.205	-38.41723
296.404	222.06488
296.603	69.25256
296.802	82.96924
297.001	108.09999
297.2	89.8252
297.398	-84.35544
297.597	156.01801
297.796	-155.7054
297.995	-183.37285
298.194	85.25474
298.392	37.22211
298.591	-40.7124
298.79	-213.37655
298.988	244.80626
299.187	-49.89493
299.386	89.8252
299.585	44.08872
299.783	130.92769
299.982	-29.23834
300.18	-121.15896
300.379	210.6878
300.578	-88.9533
300.776	-63.67419
300.975	-185.6797
301.173	96.67957
301.372	76.1117
301.57	260.71511
301.769	-224.92496
301.967	46.37723
302.166	98.964
302.364	-72.86402
302.562	66.96582
302.761	66.96582
302.959	-125.76273
303.157	-17.76882
303.356	-102.75129
303.554	224.33979
303.752	217.51456
303.951	149.17728
304.149	137.7726
304.347	-59.08037
304.546	53.24169
304.744	126.36355
304.942	133.2095
305.14	-291.99999
305.338	-63.67419
305.536	-24.64999
305.735	-17.76882
305.933	-190.29395
306.131	-243.41232
306.329	-61.37719
306.527	-111.95364
306.725	-1.71909
306.923	-43.00776
307.121	98.964
307.319	0.57301
307.517	-45.3033
307.715	87.54005
307.913	310.66056
308.111	-6.30382
308.309	-98.15122
308.507	12.03079
308.705	-75.16194
308.903	119.51603
309.1	-70.56629
309.298	48.66556
309.496	2.86492
309.694	80.68357
309.892	-167.23022
310.089	-15.47546
310.287	7.44822
310.485	96.67957
310.683	-236.47813
310.88	-82.05679
311.078	53.24169
311.276	-15.47546
311.473	-174.14736
311.671	-10.88928
311.869	92.11016
312.066	0.57301
312.264	98.964
312.461	142.33499
312.659	80.68357
312.856	265.25897
313.054	-88.9533
313.251	28.06414
313.449	153.73794
313.646	-243.41232
313.844	-137.27541
314.041	32.64348
314.239	181.08732
314.436	28.06414
314.634	328.80245
314.831	-8.59646
315.028	-102.75129
315.226	14.32181
315.423	201.58305
315.62	-61.37719
315.817	64.67891
316.015	69.25256
316.212	-102.75129
316.409	53.24169
316.606	-15.47546
316.804	-33.82742
317.001	-137.27541
317.198	206.13577
317.395	108.09999
317.592	23.48408
317.789	114.95014
317.987	55.52949
318.184	-319.8026
318.381	21.19378
318.578	92.11016
318.775	-93.55189
318.972	9.73959
319.169	-24.64999
319.366	21.19378
319.563	171.97363
319.76	190.19825
319.957	41.80003
320.154	64.67891
320.351	25.7742
320.547	92.11016
320.744	73.82549
320.941	324.26798
321.138	-6.30382
321.335	124.08122
321.532	-158.00999
321.728	-88.9533
321.925	-100.45116
322.122	114.95014
322.319	5.15666
322.515	-33.82742
322.712	190.19825
322.909	-185.6797
323.105	-199.52472
323.302	57.81711
323.499	242.53289
323.695	66.96582
323.892	-36.12223
324.089	-1.71909
324.285	-100.45116
324.482	-40.7124
324.678	-250.34823
324.875	-153.40099
325.071	190.19825
325.268	-10.88928
325.464	-155.7054
325.661	-1.71909
325.857	212.96356
326.054	-137.27541
326.25	12.03079
326.446	249.35249
326.643	-13.18228
326.839	-20.06236
327.035	-169.53574
327.232	210.6878
327.428	-137.27541
327.624	-137.27541
327.821	96.67957
328.017	-59.08037
328.213	-8.59646
328.409	-43.00776
328.606	-109.65277
328.802	117.23318
328.998	-141.88179
329.194	-84.35544
329.39	34.93289
329.586	-111.95364
329.783	112.66694
329.979	190.19825
330.175	85.25474
330.371	44.08872
330.567	303.8546
330.763	78.39772
330.959	-190.29395
331.155	-86.65428
331.351	76.1117
331.547	349.19935
331.743	-105.0516
331.939	-95.85146
332.135	-82.05679
332.33	274.34467
332.526	-10.88928
332.722	-252.66059
332.918	55.52949
333.114	-132.66978
333.31	183.36531
333.506	167.41574
333.701	162.85717
333.897	-24.64999
334.093	25.7742
334.289	-1.71909
334.484	306.12342
334.68	96.67957
334.876	-52.19101
335.071	57.81711
335.267	-137.27541
335.463	89.8252
335.658	37.22211
335.854	-181.0662
336.049	34.93289
336.245	71.53911
336.441	-4.01137
336.636	121.79871
336.832	-6.30382
337.027	149.17728
337.223	-296.63182
337.418	201.58305
337.613	28.06414
337.809	108.09999
338.004	-128.06489
338.2	18.9033
338.395	-171.84146
338.591	-111.95364
338.786	-118.85735
338.981	-47.59902
339.177	-82.05679
339.372	-139.57851
339.567	178.80916
339.762	7.44822
339.958	-107.35209
340.153	-31.53279
340.348	2344.10928
340.543	-250.34823
340.739	-10.88928
340.934	-84.35544
341.129	46.37723
341.324	53.24169
341.519	-8.59646
341.714	-148.79275
341.909	-111.95364
342.104	-70.56629
342.299	-63.67419
342.495	-61.37719
342.69	-206.44978
342.885	30.3539
343.08	1315.863
343.275	262.98713
343.469	-15.47546
343.664	153.73794
343.859	71.53911
344.054	-107.35209
344.249	-352.27442
344.444	-4.01137
344.639	-86.65428
344.834	9.73959
345.029	21.19378
345.223	274.34467
345.418	-72.86402
345.613	-125.76273
345.808	126.36355
346.003	-162.61973
346.197	92.11016
346.392	89.8252
346.587	39.51116
346.781	-146.48891
346.976	85.25474
347.171	262.98713
347.365	-82.05679
347.56	-72.86402
347.755	80.68357
347.949	-29.23834
348.144	44.08872
348.338	-40.7124
348.533	16.61264
348.727	21.19378
348.922	-185.6797
349.116	-54.48728
349.311	-4.01137
349.505	-49.89493
349.7	-160.31476
349.894	-194.90896
350.089	119.51603
350.283	44.08872
350.477	-52.19101
350.672	87.54005
350.866	87.54005
351.06	119.51603
351.255	57.81711
351.449	5.15666
351.643	174.25231
351.837	-43.00776
352.032	-254.97313
352.226	-40.7124
352.42	-26.94408
352.614	103.53235
352.809	144.61593
353.003	96.67957
353.197	-33.82742
353.391	-40.7124
353.585	156.01801
353.779	-116.55593
353.973	480.3274
354.167	144.61593
354.361	-125.76273
354.555	37.22211
354.749	-105.0516
354.943	-33.82742
355.137	-6.30382
355.331	-109.65277
355.525	-220.30503
355.719	-22.35609
355.913	-6.30382
356.107	-38.41723
356.301	-49.89493
356.495	-4.01137
356.689	78.39772
356.883	-79.75832
357.076	-91.2525
357.27	-49.89493
357.464	-33.82742
357.658	-155.7054
357.852	71.53911
358.045	-45.3033
358.239	21.19378
358.433	-82.05679
358.626	121.79871
358.82	92.11016
359.014	-13.18228
359.207	16.61264
359.401	23.48408
359.595	16.61264
359.788	-10.88928
359.982	21.19378
360.175	9.73959
360.369	156.01801
360.563	-111.95364
360.756	-211.06744
360.95	240.25934
361.143	-271.16632
361.336	-178.75973
361.53	-100.45116
361.723	-59.08037
361.917	53.24169
362.11	-243.41232
362.304	-174.14736
362.497	32.64348
362.69	133.2095
362.884	78.39772
363.077	-40.7124
363.27	-15.47546
363.464	110.38355
363.657	-151.09678
363.85	-22.35609
364.043	9.73959
364.237	25.7742
364.43	16.61264
364.623	2.86492
364.816	-153.40099
365.009	12.03079
365.202	-15.47546
365.396	55.52949
365.589	-86.65428
365.782	39.51116
365.975	-72.86402
366.168	-43.00776
366.361	53.24169
366.554	39.51116
366.747	69.25256
366.94	-118.85735
367.133	44.08872
367.326	28.06414
367.519	64.67891
367.712	-231.85629
367.905	44.08872
368.098	-20.06236
368.291	-4.01137
368.484	64.67891
368.676	-185.6797
368.869	-31.53279
369.062	-134.9725
369.255	-38.41723
369.448	149.17728
369.64	244.80626
369.833	-47.59902
370.026	-160.31476
370.219	9.73959
370.411	89.8252
370.604	-61.37719
370.797	-241.10073
370.989	-121.15896
371.182	-266.53873
371.375	41.80003
371.567	-15.47546
371.76	-174.14736
371.952	108.09999
372.145	-116.55593
372.338	-15.47546
372.53	14.32181
372.723	-160.31476
372.915	-121.15896
373.108	-43.00776
373.3	119.51603
373.493	78.39772
373.685	-13.18228
373.877	48.66556
374.07	-24.64999
374.262	60.10456
374.455	-160.31476
374.647	-294.31581
374.839	160.57762
375.032	14.32181
375.224	48.66556
375.416	-33.82742
375.609	1694.92426
375.801	-111.95364
375.993	-10.88928
376.185	-40.7124
376.378	82.96924
376.57	44.08872
376.762	121.79871
376.954	39.51116
377.146	262.98713
377.338	-6.30382
377.53	-134.9725
377.723	114.95014
377.915	9.73959
378.107	121.79871
378.299	-15.47546
378.491	87.54005
378.683	117.23318
378.875	-49.89493
379.067	133.2095
379.259	53.24169
379.451	50.95372
379.643	62.39182
379.835	-121.15896
380.027	-139.57851
380.219	41.80003
380.41	2.86492
380.602	12.03079
380.794	-264.22523
380.986	-118.85735
381.178	117.23318
381.37	-222.6149
381.561	-49.89493
381.753	389.953
381.945	-6.30382
382.137	-148.79275
382.328	-88.9533
382.52	-134.9725
382.712	-105.0516
382.903	126.36355
383.095	-29.23834
383.287	-271.16632
383.478	-10.88928
383.67	-169.53574
383.862	28.06414
384.053	178.80916
384.245	9.73959
384.436	174.25231
384.628	9.73959
384.819	-125.76273
385.011	2.86492
385.202	114.95014
385.394	-93.55189
385.585	256.17057
385.777	-111.95364
385.968	-72.86402
386.159	41.80003
386.351	39.51116
386.542	114.95014
386.734	247.07946
386.925	-174.14736
387.116	-102.75129
387.308	18.9033
387.499	-68.26874
387.69	50.95372
387.881	192.47556
388.073	94.39495
388.264	253.89805
388.455	-171.84146
388.646	156.01801
388.837	62.39182
389.029	197.02965
389.22	-70.56629
389.411	-208.75852
389.602	-15.47546
389.793	-132.66978
389.984	-36.12223
390.175	222.06488
390.366	-68.26874
390.557	-192.60136
390.748	-24.64999
390.939	121.79871
391.13	46.37723
391.321	34.93289
391.512	-56.78374
391.703	60.10456
391.894	-79.75832
392.085	-227.23522
392.276	-20.06236
392.467	-47.59902
392.658	133.2095
392.849	-190.29395
393.039	-79.75832
393.23	219.78981
393.421	30.3539
393.612	-33.82742
393.803	-6.30382
393.993	290.23816
394.184	176.53082
394.375	87.54005
394.566	-178.75973
394.756	-178.75973
394.947	174.25231
395.138	14.32181
395.328	-38.41723
395.519	185.64313
395.709	-61.37719
395.9	85.25474
396.091	-77.46004
396.281	-77.46004
396.472	82.96924
396.662	-178.75973
396.853	-86.65428
397.043	140.05388
397.234	-17.76882
397.424	21.19378
397.615	-61.37719
397.805	-47.59902
397.996	-59.08037
398.186	-15.47546
398.376	-20.06236
398.567	66.96582
398.757	-111.95364
398.947	-144.18526
399.138	133.2095
399.328	-13.18228
399.518	-125.76273
399.709	-8.59646
399.899	-98.15122
400.089	-10.88928
400.279	-29.23834
400.47	87.54005
400.66	64.67891
400.85	25.7742
401.04	237.98563
401.23	292.50799
401.421	165.13654
401.611	-197.21674
401.801	-109.65277
401.991	-95.85146
402.181	237.98563
402.371	34.93289
402.561	165.13654
402.751	-199.52472
402.941	181.08732
403.131	144.61593
403.321	71.53911
403.511	-102.75129
403.701	110.38355
403.891	-164.92488
404.081	-125.76273
404.271	-162.61973
404.461	149.17728
404.651	-148.79275
404.84	137.7726
405.03	-68.26874
405.22	217.51456
405.41	21.19378
405.6	190.19825
405.789	212.96356
405.979	98.964
406.169	7.44822
406.359	-86.65428
406.548	-63.67419
406.738	2.86492
406.928	153.73794
407.118	206.13577
407.307	85.25474
407.497	-248.03607
407.686	201.58305
407.876	12.03079
408.066	-24.64999
408.255	60.10456
408.445	-56.78374
408.634	53.24169
408.824	9.73959
409.013	-155.7054
409.203	-33.82742
409.392	-47.59902
409.582	-52.19101
409.771	-190.29395
409.961	85.25474
410.15	-33.82742
410.34	194.75269
410.529	-123.46075
410.718	108.09999
410.908	278.88651
411.097	-116.55593
411.286	5.15666
411.476	-98.15122
411.665	55.52949
411.854	-49.89493
412.044	-29.23834
412.233	30.3539
412.422	135.49114
412.611	-102.75129
412.8	39.51116
412.99	-174.14736
413.179	-38.41723
413.368	-31.53279
413.557	-10.88928
413.746	44.08872
413.935	25.7742
414.124	-185.6797
414.313	21.19378
414.503	-134.9725
414.692	78.39772
414.881	206.13577
415.07	-38.41723
415.259	-56.78374
415.448	85.25474
415.637	46.37723
415.826	-36.12223
416.015	-56.78374
416.203	-162.61973
416.392	-24.64999
416.581	-132.66978
416.77	285.69801
416.959	158.2979
417.148	-61.37719
417.337	2.86492
417.525	9.73959
417.714	89.8252
417.903	-72.86402
418.092	-134.9725
418.281	-61.37719
418.469	50.95372
418.658	-38.41723
418.847	-93.55189
419.035	-61.37719
419.224	-33.82742
419.413	-227.23522
419.601	-47.59902
419.79	-208.75852
419.979	108.09999
420.167	-132.66978
420.356	64.67891
420.544	105.81626
420.733	-6.30382
420.921	-24.64999
421.11	34.93289
421.299	349.19935
421.487	-151.09678
421.675	171.97363
421.864	-100.45116
422.052	16.61264
422.241	82.96924
422.429	-137.27541
422.618	82.96924
422.806	-102.75129
422.994	-72.86402
423.183	156.01801
423.371	-77.46004
423.559	149.17728
423.748	-59.08037
423.936	-72.86402
424.124	-98.15122
424.312	-65.97137
424.501	169.69477
424.689	133.2095
424.877	-98.15122
425.065	-75.16194
425.254	-59.08037
425.442	412.57094
425.63	-8.59646
425.818	251.62535
426.006	-111.95364
426.194	92.11016
426.382	228.88908
426.57	190.19825
426.758	-151.09678
426.946	-95.85146
427.134	-82.05679
427.323	18.9033
427.51	114.95014
427.698	181.08732
427.886	101.24826
428.074	-47.59902
428.262	-141.88179
428.45	-70.56629
428.638	-139.57851
428.826	201.58305
429.014	-40.7124
429.202	-111.95364
429.39	-98.15122
429.577	228.88908
429.765	44.08872
429.953	92.11016
430.141	50.95372
430.329	130.92769
430.516	-91.2525
430.704	169.69477
430.892	-134.9725
431.079	-6.30382
431.267	119.51603
431.455	-227.23522
431.643	9.73959
431.83	126.36355
432.018	130.92769
432.205	-6.30382
432.393	16.61264
432.581	-45.3033
432.768	-24.64999
432.956	124.08122
433.143	66.96582
433.331	41.80003
433.518	-134.9725
433.706	-38.41723
433.893	-105.0516
434.081	-220.30503
434.268	360.52516
434.456	-84.35544
434.643	-45.3033
434.83	2.86492
435.018	-10.88928
435.205	-65.97137
435.392	-164.92488
435.58	-201.83288
435.767	76.1117
435.954	-86.65428
436.142	69.25256
436.329	222.06488
436.516	-40.7124
436.703	-45.3033
436.891	165.13654
437.078	14.32181
437.265	78.39772
437.452	-121.15896
437.639	44.08872
437.827	23.48408
438.014	41.80003
438.201	-158.00999
438.388	-43.00776
438.575	181.08732
438.762	-197.21674
438.949	-114.25469
439.136	-114.25469
439.323	78.39772
439.51	-22.35609
439.697	146.89669
439.884	169.69477
440.071	-17.76882
440.258	235.71175
440.445	235.71175
440.632	371.84685
440.819	-84.35544
441.006	210.6878
441.193	21.19378
441.38	-61.37719
441.566	57.81711
441.753	-29.23834
441.94	2.86492
442.127	-130.36724
442.314	240.25934
442.5	306.12342
442.687	41.80003
442.874	-10.88928
443.061	-26.94408
443.247	66.96582
443.434	-26.94408
443.621	-54.48728
443.807	-176.45345
443.994	253.89805
444.181	130.92769
444.367	-201.83288
444.554	-98.15122
444.74	146.89669
444.927	-192.60136
445.114	28.06414
445.3	344.66786
445.487	-146.48891
445.673	69.25256
445.86	-139.57851
446.046	-56.78374
446.233	14.32181
446.419	-153.40099
446.605	-13.18228
446.792	41.80003
446.978	-264.22523
447.165	-139.57851
447.351	-29.23834
447.537	-43.00776
447.724	-204.14124
447.91	-111.95364
448.096	30.3539
448.283	283.42768
448.469	-4.01137
448.655	121.79871
448.841	-155.7054
449.028	103.53235
449.214	105.81626
449.4	-4.01137
449.586	-167.23022
449.773	151.4577
449.959	-114.25469
450.145	212.96356
450.331	-211.06744
450.517	-132.66978
450.703	-164.92488
450.889	-155.7054
451.075	-52.19101
451.261	140.05388
451.447	-61.37719
451.633	-222.6149
451.819	23.48408
452.005	278.88651
452.191	222.06488
452.377	108.09999
452.563	-63.67419
452.749	2.86492
452.935	360.52516
453.121	-79.75832
453.307	7.44822
453.493	149.17728
453.679	103.53235
453.865	162.85717
454.05	-17.76882
454.236	-26.94408
454.422	-38.41723
454.608	-72.86402
454.794	-31.53279
454.979	-4.01137
455.165	-86.65428
455.351	108.09999
455.537	-33.82742
455.722	247.07946
455.908	-187.98673
456.094	9.73959
456.279	101.24826
456.465	181.08732
456.65	-132.66978
456.836	247.07946
457.022	140.05388
457.207	92.11016
457.393	-13.18228
457.578	178.80916
457.764	208.41187
457.949	57.81711
458.135	192.47556
458.32	62.39182
458.506	-68.26874
458.691	190.19825
458.877	-123.46075
459.062	-59.08037
459.248	-22.35609
459.433	-6.30382
459.618	-137.27541
459.804	-17.76882
459.989	73.82549
460.174	5.15666
460.36	258.44293
460.545	-36.12223
460.73	-116.55593
460.915	-40.7124
461.101	208.41187
461.286	-38.41723
461.471	-38.41723
461.656	9.73959
461.842	64.67891
462.027	2.86492
462.212	-38.41723
462.397	-144.18526
462.582	-22.35609
462.767	126.36355
462.952	-75.16194
463.138	-181.0662
463.323	176.53082
463.508	48.66556
463.693	96.67957
463.878	-38.41723
464.063	39.51116
464.248	78.39772
464.433	0.57301
464.618	53.24169
464.803	162.85717
464.988	12.03079
465.173	178.80916
465.357	34.93289
465.542	98.964
465.727	112.66694
465.912	276.61568
466.097	256.17057
466.282	85.25474
466.467	21.19378
466.651	101.24826
466.836	7.44822
467.021	-65.97137
467.206	108.09999
467.391	32.64348
467.575	-6.30382
467.76	237.98563
467.945	203.8595
468.129	28.06414
468.314	249.35249
468.499	-59.08037
468.683	160.57762
468.868	9.73959
469.053	34.93289
469.237	53.24169
469.422	50.95372
469.606	64.67891
469.791	160.57762
469.975	-155.7054
470.16	-238.78934
470.344	37.22211
470.529	108.09999
470.713	160.57762
470.898	98.964
471.082	32.64348
471.267	-13.18228
471.451	162.85717
471.636	21.19378
471.82	-144.18526
472.004	171.97363
472.189	126.36355
472.373	50.95372
472.557	224.33979
472.742	71.53911
472.926	12.03079
473.11	-107.35209
473.295	126.36355
473.479	98.964
473.663	94.39495
473.847	2.86492
474.031	-43.00776
474.216	53.24169
474.4	60.10456
474.584	-47.59902
474.768	85.25474
474.952	153.73794
475.136	351.46484
475.32	-116.55593
475.505	50.95372
475.689	112.66694
475.873	96.67957
476.057	165.13654
476.241	-15.47546
476.425	240.25934
476.609	98.964
476.793	64.67891
476.977	-132.66978
477.161	137.7726
477.345	249.35249
477.529	-1.71909
477.713	322.00049
477.896	208.41187
478.08	222.06488
478.264	64.67891
478.448	153.73794
478.632	174.25231
478.816	-93.55189
478.999	-26.94408
479.183	85.25474
479.367	-61.37719
479.551	294.77765
479.735	2.86492
479.918	-47.59902
480.102	324.26798
480.286	144.61593
480.469	146.89669
480.653	-15.47546
480.837	208.41187
481.02	12.03079
481.204	25.7742
481.388	-82.05679
481.571	153.73794
481.755	71.53911
481.938	103.53235
482.122	-63.67419
482.305	114.95014
482.489	262.98713
482.673	-125.76273
482.856	92.11016
483.04	57.81711
483.223	48.66556
483.406	-86.65428
483.59	-130.36724
483.773	92.11016
483.957	-125.76273
484.14	183.36531
484.323	94.39495
484.507	50.95372
484.69	349.19935
484.874	32.64348
485.057	-8.59646
485.24	156.01801
485.423	-61.37719
485.607	158.2979
485.79	137.7726
485.973	-98.15122
486.156	331.06943
486.34	-13.18228
486.523	276.61568
486.706	73.82549
486.889	89.8252
487.072	7.44822
487.256	151.4577
487.439	187.92078
487.622	62.39182
487.805	137.7726
487.988	-22.35609
488.171	240.25934
488.354	-111.95364
488.537	73.82549
488.72	71.53911
488.903	34.93289
489.086	-79.75832
489.269	121.79871
489.452	-56.78374
489.635	153.73794
489.818	426.13389
490.001	-174.14736
490.184	-86.65428
490.367	89.8252
490.55	149.17728
490.732	292.50799
490.915	12.03079
491.098	-43.00776
491.281	87.54005
491.464	-84.35544
491.647	265.25897
491.829	-160.31476
492.012	-49.89493
492.195	153.73794
492.378	-107.35209
492.56	335.60291
492.743	153.73794
492.926	-29.23834
493.108	-4.01137
493.291	87.54005
493.474	7.44822
493.656	96.67957
493.839	96.67957
494.022	76.1117
494.204	432.91316
494.387	217.51456
494.569	112.66694
494.752	117.23318
494.934	265.25897
495.117	-70.56629
495.299	-26.94408
495.482	328.80245
495.664	355.99533
495.847	-17.76882
496.029	39.51116
496.212	937.36829
496.394	119.51603
496.576	183.36531
496.759	-82.05679
496.941	121.79871
497.123	262.98713
497.306	7.44822
497.488	117.23318
497.67	146.89669
497.853	-109.65277
498.035	224.33979
498.217	405.78727
498.4	-22.35609
498.582	-13.18228
498.764	-4.01137
498.946	153.73794
499.128	290.23816
499.311	9.73959
499.493	-88.9533
499.675	30.3539
499.857	358.26033
500.039	428.39381
500.221	124.08122
500.403	-40.7124
500.585	423.8738
500.767	312.92888
500.949	267.53065
501.132	-43.00776
501.314	76.1117
501.496	491.60606
501.678	-15.47546
501.859	247.07946
502.041	144.61593
502.223	0.57301
502.405	39.51116
502.587	283.42768
502.769	308.39208
502.951	5.15666
503.133	50.95372
503.315	215.23915
503.497	274.34467
503.678	274.34467
503.86	-49.89493
504.042	206.13577
504.224	335.60291
504.406	301.58562
504.587	69.25256
504.769	274.34467
504.951	-56.78374
505.132	-24.64999
505.314	146.89669
505.496	-134.9725
505.678	326.5353
505.859	105.81626
506.041	-6.30382
506.222	-47.59902
506.404	328.80245
506.586	244.80626
506.767	9.73959
506.949	151.4577
507.13	9.73959
507.312	121.79871
507.493	340.13572
507.675	171.97363
507.856	-79.75832
508.038	156.01801
508.219	-167.23022
508.401	-56.78374
508.582	299.31646
508.764	430.65357
508.945	89.8252
509.126	-38.41723
509.308	176.53082
509.489	183.36531
509.671	135.49114
509.852	337.8694
510.033	2.86492
510.214	292.50799
510.396	46.37723
510.577	-93.55189
510.758	466.78772
510.94	559.19453
511.121	142.33499
511.302	178.80916
511.483	121.79871
511.664	201.58305
511.846	-190.29395
512.027	312.92888
512.208	153.73794
512.389	290.23816
512.57	133.2095
512.751	351.46484
512.932	142.33499
513.113	297.04714
513.294	87.54005
513.476	85.25474
513.657	110.38355
513.838	317.46502
514.019	190.19825
514.2	50.95372
514.381	274.34467
514.561	290.23816
514.742	-17.76882
514.923	137.7726
515.104	108.09999
515.285	126.36355
515.466	197.02965
515.647	80.68357
515.828	301.58562
516.009	505.13518
516.189	146.89669
516.37	226.61452
516.551	57.81711
516.732	197.02965
516.913	87.54005
517.093	-10.88928
517.274	5.15666
517.455	130.92769
517.636	85.25474
517.816	144.61593
517.997	355.99533
518.178	240.25934
518.358	-6.30382
518.539	73.82549
518.72	183.36531
518.9	108.09999
519.081	103.53235
519.261	294.77765
519.442	401.26401
519.622	160.57762
519.803	32.64348
519.984	278.88651
520.164	167.41574
520.345	135.49114
520.525	208.41187
520.705	89.8252
520.886	247.07946
521.066	-70.56629
521.247	-13.18228
521.427	183.36531
521.608	523.16509
521.788	-47.59902
521.968	401.26401
522.149	48.66556
522.329	201.58305
522.509	14.32181
522.69	124.08122
522.87	119.51603
523.05	80.68357
523.231	103.53235
523.411	14.32181
523.591	299.31646
523.771	242.53289
523.951	251.62535
524.132	151.4577
524.312	235.71175
524.492	312.92888
524.672	237.98563
524.852	358.26033
525.032	7.44822
525.213	130.92769
525.393	496.1164
525.573	110.38355
525.753	249.35249
525.933	310.66056
526.113	233.4377
526.293	112.66694
526.473	50.95372
526.653	301.58562
526.833	399.00214
527.013	89.8252
527.193	12.03079
527.373	176.53082
527.553	228.88908
527.733	34.93289
527.913	0.57301
528.092	34.93289
528.272	337.8694
528.452	133.2095
528.632	156.01801
528.812	60.10456
528.992	276.61568
529.171	324.26798
529.351	119.51603
529.531	62.39182
529.711	194.75269
529.89	-15.47546
530.07	-47.59902
530.25	353.73017
530.43	283.42768
530.609	98.964
530.789	169.69477
530.969	144.61593
531.148	80.68357
531.328	-88.9533
531.507	-4.01137
531.687	-56.78374
531.867	144.61593
532.046	208.41187
532.226	-164.92488
532.405	244.80626
532.585	-68.26874
532.764	108.09999
532.944	274.34467
533.123	142.33499
533.303	-79.75832
533.482	126.36355
533.662	114.95014
533.841	87.54005
534.021	353.73017
534.2	119.51603
534.379	62.39182
534.559	183.36531
534.738	199.30644
534.917	7.44822
535.097	76.1117
535.276	153.73794
535.455	165.13654
535.635	69.25256
535.814	57.81711
535.993	25.7742
536.172	174.25231
536.352	185.64313
536.531	-105.0516
536.71	267.53065
536.889	240.25934
537.068	44.08872
537.248	94.39495
537.427	335.60291
537.606	21.19378
537.785	-31.53279
537.964	-47.59902
538.143	-79.75832
538.322	135.49114
538.501	-65.97137
538.68	185.64313
538.859	121.79871
539.038	185.64313
539.217	-24.64999
539.396	-178.75973
539.575	162.85717
539.754	319.73284
539.933	2.86492
540.112	-155.7054
540.291	156.01801
540.47	98.964
540.649	25.7742
540.828	-75.16194
541.007	215.23915
541.186	7.44822
541.364	103.53235
541.543	80.68357
541.722	233.4377
541.901	12.03079
542.08	446.46735
542.258	140.05388
542.437	-40.7124
542.616	30.3539
542.795	34.93289
542.973	185.64313
543.152	-77.46004
543.331	41.80003
543.509	5.15666
543.688	101.24826
543.867	5.15666
544.045	-22.35609
544.224	44.08872
544.402	622.14949
544.581	-38.41723
544.76	80.68357
544.938	-17.76882
545.117	-1.71909
545.295	-162.61973
545.474	-17.76882
545.652	92.11016
545.831	2.86492
546.009	235.71175
546.188	80.68357
546.366	30.3539
546.544	272.0735
546.723	105.81626
546.901	57.81711
547.08	142.33499
547.258	80.68357
547.436	310.66056
547.615	-20.06236
547.793	-77.46004
547.971	112.66694
548.15	-75.16194
548.328	231.16348
548.506	201.58305
548.684	283.42768
548.863	-40.7124
549.041	64.67891
549.219	-105.0516
549.397	222.06488
549.576	203.8595
549.754	-118.85735
549.932	73.82549
550.11	114.95014
550.288	-29.23834
550.466	80.68357
550.644	23.48408
550.822	-8.59646
551.001	41.80003
551.179	25.7742
551.357	367.31867
551.535	215.23915
551.713	92.11016
551.891	197.02965
552.069	9.73959
552.247	64.67891
552.425	-13.18228
552.603	151.4577
552.781	76.1117
552.958	18.9033
553.136	392.21553
553.314	267.53065
553.492	260.71511
553.67	60.10456
553.848	30.3539
554.026	-59.08037
554.204	-17.76882
554.381	14.32181
554.559	23.48408
554.737	-15.47546
554.915	165.13654
555.092	105.81626
555.27	432.91316
555.448	-31.53279
555.626	46.37723
555.803	-31.53279
555.981	222.06488
556.159	171.97363
556.336	228.88908
556.514	-45.3033
556.692	87.54005
556.869	98.964
557.047	-15.47546
557.224	28.06414
557.402	119.51603
557.58	290.23816
557.757	-222.6149
557.935	-36.12223
558.112	-105.0516
558.29	119.51603
558.467	-158.00999
558.645	-105.0516
558.822	92.11016
559	174.25231
559.177	2.86492
559.354	21.19378
559.532	194.75269
559.709	178.80916
559.887	-181.0662
560.064	-10.88928
560.241	149.17728
560.419	-75.16194
560.596	66.96582
560.773	89.8252
560.951	-1.71909
561.128	194.75269
561.305	110.38355
561.482	-171.84146
561.66	389.953
561.837	171.97363
562.014	-88.9533
562.191	50.95372
562.368	85.25474
562.546	-148.79275
562.723	-6.30382
562.9	-130.36724
563.077	310.66056
563.254	142.33499
563.431	-45.3033
563.608	287.96817
563.785	-109.65277
563.962	212.96356
564.139	-70.56629
564.317	9.73959
564.494	-178.75973
564.671	192.47556
564.848	-15.47546
565.025	-178.75973
565.201	-93.55189
565.378	25.7742
565.555	21.19378
565.732	-26.94408
565.909	98.964
566.086	85.25474
566.263	-1.71909
566.44	-20.06236
566.617	37.22211
566.794	487.09508
566.97	44.08872
567.147	-65.97137
567.324	48.66556
567.501	23.48408
567.678	39.51116
567.854	39.51116
568.031	-82.05679
568.208	-155.7054
568.384	-241.10073
568.561	48.66556
568.738	-167.23022
568.915	290.23816
569.091	-153.40099
569.268	194.75269
569.444	7.44822
569.621	18.9033
569.798	185.64313
569.974	242.53289
570.151	153.73794
570.327	-59.08037
570.504	96.67957
570.681	-65.97137
570.857	62.39182
571.034	206.13577
571.21	135.49114
571.387	9.73959
571.563	144.61593
571.739	190.19825
571.916	48.66556
572.092	12.03079
572.269	256.17057
572.445	203.8595
572.622	-52.19101
572.798	-31.53279
572.974	64.67891
573.151	32.64348
573.327	-107.35209
573.503	25.7742
573.68	39.51116
573.856	-114.25469
574.032	-70.56629
574.208	-20.06236
574.385	-6.30382
574.561	-86.65428
574.737	62.39182
574.913	-29.23834
575.089	149.17728
575.266	2.86492
575.442	-52.19101
575.618	108.09999
575.794	-20.06236
575.97	-8.59646
576.146	-144.18526
576.322	-65.97137
576.499	117.23318
576.675	208.41187
576.851	48.66556
577.027	151.4577
577.203	-128.06489
577.379	121.79871
577.555	98.964
577.731	181.08732
577.907	1287.22649
578.083	242.53289
578.259	48.66556
578.435	-13.18228
578.611	142.33499
578.786	117.23318
578.962	57.81711
579.138	-54.48728
579.314	174.25231
579.49	92.11016
579.666	39.51116
579.842	-82.05679
580.017	39.51116
580.193	-61.37719
580.369	181.08732
580.545	-130.36724
580.72	190.19825
580.896	-54.48728
581.072	64.67891
581.248	-70.56629
581.423	55.52949
581.599	242.53289
581.775	176.53082
581.95	-1.71909
582.126	85.25474
582.302	317.46502
582.477	-68.26874
582.653	-70.56629
582.829	16.61264
583.004	-75.16194
583.18	240.25934
583.355	-121.15896
583.531	25.7742
583.706	-75.16194
583.882	16.61264
584.057	-79.75832
584.233	194.75269
584.408	228.88908
584.584	-61.37719
584.759	-174.14736
584.935	53.24169
585.11	62.39182
585.285	-40.7124
585.461	-17.76882
585.636	78.39772
585.812	292.50799
585.987	-111.95364
586.162	-38.41723
586.338	162.85717
586.513	16.61264
586.688	-56.78374
586.863	103.53235
587.039	-10.88928
587.214	-75.16194
587.389	-111.95364
587.564	-86.65428
587.74	16.61264
587.915	-128.06489
588.09	-95.85146
588.265	-22.35609
588.44	-178.75973
588.615	-4.01137
588.791	-144.18526
588.966	-33.82742
589.141	-72.86402
589.316	197.02965
589.491	-91.2525
589.666	30.3539
589.841	290.23816
590.016	-79.75832
590.191	105.81626
590.366	-169.53574
590.541	-86.65428
590.716	153.73794
590.891	274.34467
591.066	-8.59646
591.241	-153.40099
591.416	185.64313
591.591	76.1117
591.766	153.73794
591.941	78.39772
592.116	-153.40099
592.29	60.10456
592.465	-88.9533
592.64	-144.18526
592.815	39.51116
592.99	-282.73865
593.165	-40.7124
593.339	57.81711
593.514	126.36355
593.689	237.98563
593.864	-105.0516
594.038	124.08122
594.213	21.19378
594.388	-98.15122
594.562	-52.19101
594.737	126.36355
594.912	178.80916
595.086	-139.57851
595.261	-59.08037
595.436	28.06414
595.61	-139.57851
595.785	92.11016
595.959	-128.06489
596.134	98.964
596.309	98.964
596.483	14.32181
596.658	-116.55593
596.832	60.10456
597.007	337.8694
597.181	-144.18526
597.356	-125.76273
597.53	-72.86402
597.704	2.86492
597.879	-105.0516
598.053	-91.2525
598.228	262.98713
598.402	137.7726
598.576	-36.12223
598.751	30.3539
598.925	103.53235
599.1	-259.5988
599.274	-20.06236
599.448	-29.23834
599.622	242.53289
599.797	151.4577
599.971	-208.75852
600.145	212.96356
600.32	-13.18228
600.494	39.51116
600.668	64.67891
600.842	-52.19101
601.016	44.08872
601.191	240.25934
601.365	496.1164
601.539	46.37723
601.713	146.89669
601.887	46.37723
602.061	-86.65428
602.235	50.95372
602.409	-107.35209
602.583	-43.00776
602.758	53.24169
602.932	66.96582
603.106	-75.16194
603.28	-93.55189
603.454	32.64348
603.628	30.3539
603.802	105.81626
603.976	-102.75129
604.149	-114.25469
604.323	-45.3033
604.497	9.73959
604.671	39.51116
604.845	-52.19101
605.019	-98.15122
605.193	-114.25469
605.367	183.36531
605.541	64.67891
605.714	2.86492
605.888	149.17728
606.062	16.61264
606.236	-82.05679
606.41	96.67957
606.583	128.64571
606.757	69.25256
606.931	60.10456
607.105	-38.41723
607.278	-77.46004
607.452	-130.36724
607.626	14.32181
607.799	39.51116
607.973	34.93289
608.147	53.24169
608.32	94.39495
608.494	-84.35544
608.668	-77.46004
608.841	176.53082
609.015	210.6878
609.188	71.53911
609.362	-238.78934
609.535	76.1117
609.709	-26.94408
609.882	0.57301
610.056	-130.36724
610.229	-215.68585
610.403	44.08872
610.576	-95.85146
610.75	69.25256
610.923	126.36355
611.097	-241.10073
611.27	267.53065
611.443	-194.90896
611.617	-24.64999
611.79	-38.41723
611.963	-4.01137
612.137	124.08122
612.31	-13.18228
612.483	-17.76882
612.657	-65.97137
612.83	-137.27541
613.003	-45.3033
613.177	80.68357
613.35	-77.46004
613.523	167.41574
613.696	126.36355
613.869	21.19378
614.043	-121.15896
614.216	-171.84146
614.389	-70.56629
614.562	-111.95364
614.735	18.9033
614.908	-61.37719
615.082	92.11016
615.255	-130.36724
615.428	137.7726
615.601	-134.9725
615.774	110.38355
615.947	-61.37719
616.12	-1.71909
616.293	146.89669
616.466	185.64313
616.639	-70.56629
616.812	34.93289
616.985	73.82549
617.158	-49.89493
617.331	-95.85146
617.504	265.25897
617.677	64.67891
617.85	103.53235
618.022	0.57301
618.195	21.19378
618.368	-17.76882
618.541	-47.59902
618.714	2.86492
618.887	-164.92488
619.059	96.67957
619.232	5.15666
619.405	222.06488
619.578	-8.59646
619.751	-1.71909
619.923	-245.7241
620.096	2.86492
620.269	267.53065
620.441	-20.06236
620.614	-77.46004
620.787	21.19378
620.96	-82.05679
621.132	119.51603
621.305	176.53082
621.477	-24.64999
621.65	-13.18228
621.823	105.81626
621.995	101.24826
622.168	199.30644
622.34	-93.55189
622.513	53.24169
622.685	158.2979
622.858	-49.89493
623.03	-75.16194
623.203	16.61264
623.375	-47.59902
623.548	-86.65428
623.72	-10.88928
623.893	-105.0516
624.065	-211.06744
624.238	187.92078
624.41	-197.21674
624.582	57.81711
624.755	153.73794
624.927	9.73959
625.1	-123.46075
625.272	-49.89493
625.444	-56.78374
625.617	39.51116
625.789	-164.92488
625.961	-95.85146
626.133	-56.78374
626.306	82.96924
626.478	80.68357
626.65	269.80216
626.822	71.53911
626.995	-54.48728
627.167	-100.45116
627.339	103.53235
627.511	32.64348
627.683	-29.23834
627.855	-15.47546
628.027	7.44822
628.2	12.03079
628.372	30.3539
628.544	37.22211
628.716	44.08872
628.888	176.53082
629.06	-10.88928
629.232	-82.05679
629.404	44.08872
629.576	187.92078
629.748	-109.65277
629.92	-47.59902
630.092	174.25231
630.264	169.69477
630.436	-86.65428
630.608	62.39182
630.78	25.7742
630.952	-47.59902
631.124	78.39772
631.295	-1.71909
631.467	48.66556
631.639	-47.59902
631.811	-134.9725
631.983	-68.26874
632.155	-72.86402
632.326	5.15666
632.498	187.92078
632.67	-224.92496
632.842	37.22211
633.014	48.66556
633.185	253.89805
633.357	-153.40099
633.529	226.61452
633.7	126.36355
633.872	-88.9533
634.044	-65.97137
634.215	199.30644
634.387	117.23318
634.559	-190.29395
634.73	-52.19101
634.902	-118.85735
635.074	-75.16194
635.245	30.3539
635.417	-95.85146
635.588	408.04866
635.76	-56.78374
635.931	117.23318
636.103	-10.88928
636.274	176.53082
636.446	57.81711
636.617	-68.26874
636.789	-4.01137
636.96	110.38355
637.132	272.0735
637.303	-47.59902
637.474	-63.67419
637.646	212.96356
637.817	119.51603
637.989	-40.7124
638.16	-141.88179
638.331	-148.79275
638.503	244.80626
638.674	-100.45116
638.845	101.24826
639.017	80.68357
639.188	101.24826
639.359	-116.55593
639.53	23.48408
639.702	-61.37719
639.873	-227.23522
640.044	-105.0516
640.215	-88.9533
640.387	-88.9533
640.558	53.24169
640.729	237.98563
640.9	135.49114
641.071	-38.41723
641.242	258.44293
641.413	73.82549
641.585	-220.30503
641.756	89.8252
641.927	-151.09678
642.098	-183.37285
642.269	-153.40099
642.44	121.79871
642.611	-47.59902
642.782	-20.06236
642.953	12.03079
643.124	44.08872
643.295	-176.45345
643.466	0.57301
643.637	212.96356
643.808	44.08872
643.979	41.80003
644.15	37.22211
644.32	108.09999
644.491	-61.37719
644.662	-43.00776
644.833	-121.15896
645.004	44.08872
645.175	-84.35544
645.346	62.39182
645.516	53.24169
645.687	-65.97137
645.858	167.41574
646.029	258.44293
646.199	105.81626
646.37	64.67891
646.541	-146.48891
646.712	133.2095
646.882	21.19378
647.053	55.52949
647.224	-100.45116
647.394	-70.56629
647.565	89.8252
647.736	28.06414
647.906	-93.55189
648.077	130.92769
648.248	12.03079
648.418	-61.37719
648.589	-134.9725
648.759	-224.92496
648.93	-45.3033
649.1	-84.35544
649.271	276.61568
649.441	290.23816
649.612	39.51116
649.782	-63.67419
649.953	44.08872
650.123	-49.89493
650.294	55.52949
650.464	-65.97137
650.635	2417.09272
650.805	66.96582
650.975	142.33499
651.146	-208.75852
651.316	-75.16194
651.487	-1.71909
651.657	-192.60136
651.827	-33.82742
651.998	-215.68585
652.168	301.58562
652.338	-33.82742
652.508	-118.85735
652.679	-22.35609
652.849	333.33625
653.019	-105.0516
653.189	-10.88928
653.36	94.39495
653.53	-61.37719
653.7	-162.61973
653.87	-88.9533
654.04	9.73959
654.211	215.23915
654.381	-22.35609
654.551	0.57301
654.721	322.00049
654.891	94.39495
655.061	-213.37655
655.231	-155.7054
655.401	160.57762
655.571	240.25934
655.741	149.17728
655.911	-144.18526
656.081	247.07946
656.251	23.48408
656.421	69.25256
656.591	-111.95364
656.761	114.95014
656.931	-38.41723
657.101	-93.55189
657.271	87.54005
657.441	371.84685
657.611	-111.95364
657.781	-217.99535
657.951	-125.76273
658.121	16.61264
658.291	133.2095
658.46	-107.35209
658.63	7.44822
658.8	73.82549
658.97	135.49114
659.14	-47.59902
659.309	28.06414
659.479	208.41187
659.649	-91.2525
659.819	41.80003
659.988	-158.00999
660.158	-70.56629
660.328	124.08122
660.497	-98.15122
660.667	-148.79275
660.837	130.92769
661.006	30.3539
661.176	-275.79467
661.346	-47.59902
661.515	50.95372
661.685	-98.15122
661.854	-107.35209
662.024	-109.65277
662.194	82.96924
662.363	98.964
662.533	-1.71909
662.702	-187.98673
662.872	312.92888
663.041	110.38355
663.211	-79.75832
663.38	-26.94408
663.55	-43.00776
663.719	130.92769
663.889	-20.06236
664.058	-171.84146
664.227	-215.68585
664.397	85.25474
664.566	-47.59902
664.735	-54.48728
664.905	-38.41723
665.074	-36.12223
665.244	-93.55189
665.413	-82.05679
665.582	158.2979
665.751	89.8252
665.921	-26.94408
666.09	-158.00999
666.259	206.13577
666.428	71.53911
666.598	-241.10073
666.767	-82.05679
666.936	0.57301
667.105	165.13654
667.275	-72.86402
667.444	-114.25469
667.613	142.33499
667.782	-70.56629
667.951	-114.25469
668.12	71.53911
668.289	23.48408
668.458	25.7742
668.628	-84.35544
668.797	-190.29395
668.966	-65.97137
669.135	-227.23522
669.304	-162.61973
669.473	-8.59646
669.642	7.44822
669.811	96.67957
669.98	-24.64999
670.149	-121.15896
670.318	80.68357
670.487	233.4377
670.656	89.8252
670.824	-155.7054
670.993	-75.16194
671.162	48.66556
671.331	-213.37655
671.5	-118.85735
671.669	73.82549
671.838	-84.35544
672.007	-36.12223
672.175	-130.36724
672.344	194.75269
672.513	57.81711
672.682	-123.46075
672.85	-141.88179
673.019	62.39182
673.188	94.39495
673.357	-130.36724
673.525	-98.15122
673.694	267.53065
673.863	44.08872
674.032	-68.26874
674.2	-155.7054
674.369	124.08122
674.537	235.71175
674.706	-254.97313
674.875	-24.64999
675.043	-22.35609
675.212	137.7726
675.381	206.13577
675.549	-29.23834
675.718	55.52949
675.886	276.61568
676.055	-84.35544
676.223	-79.75832
676.392	140.05388
676.56	80.68357
676.729	-65.97137
676.897	-116.55593
677.066	32.64348
677.234	44.08872
677.403	-111.95364
677.571	-6.30382
677.739	92.11016
677.908	73.82549
678.076	-29.23834
678.244	-20.06236
678.413	-40.7124
678.581	124.08122
678.75	-102.75129
678.918	-29.23834
679.086	-13.18228
679.254	-17.76882
679.423	-158.00999
679.591	210.6878
679.759	-13.18228
679.928	-109.65277
680.096	-10.88928
680.264	-123.46075
680.432	-98.15122
680.6	117.23318
680.769	-6.30382
680.937	-107.35209
681.105	383.16442
681.273	215.23915
681.441	-171.84146
681.609	71.53911
681.777	-77.46004
681.945	39.51116
682.114	-208.75852
682.282	-185.6797
682.45	-208.75852
682.618	-158.00999
682.786	-231.85629
682.954	-47.59902
683.122	1229.88705
683.29	103.53235
683.458	-176.45345
683.626	-45.3033
683.794	94.39495
683.962	-151.09678
684.13	-59.08037
684.298	-118.85735
684.465	-59.08037
684.633	82.96924
684.801	-144.18526
684.969	21.19378
685.137	156.01801
685.305	50.95372
685.473	-123.46075
685.64	-146.48891
685.808	28.06414
685.976	260.71511
686.144	-248.03607
686.312	-20.06236
686.479	7.44822
686.647	-40.7124
686.815	-171.84146
686.983	-190.29395
687.15	-54.48728
687.318	181.08732
687.486	-63.67419
687.653	-91.2525
687.821	23.48408
687.989	312.92888
688.156	-201.83288
688.324	-160.31476
688.492	135.49114
688.659	-77.46004
688.827	5.15666
688.994	41.80003
689.162	-22.35609
689.329	64.67891
689.497	-204.14124
689.665	-231.85629
689.832	69.25256
690	44.08872
690.167	-317.48464
690.335	-178.75973
690.502	-174.14736
690.669	299.31646
690.837	-84.35544
691.004	94.39495
691.172	105.81626
691.339	217.51456
691.507	-248.03607
691.674	-308.21478
691.841	18.9033
692.009	-20.06236
692.176	14.32181
692.343	-63.67419
692.511	18.9033
692.678	28.06414
692.845	-86.65428
693.013	-160.31476
693.18	73.82549
693.347	30.3539
693.514	-36.12223
693.682	-130.36724
693.849	73.82549
694.016	-40.7124
694.183	85.25474
694.35	-185.6797
694.518	-52.19101
694.685	21.19378
694.852	-227.23522
695.019	-298.94802
695.186	130.92769
695.353	160.57762
695.52	12.03079
695.687	18.9033
695.855	149.17728
696.022	146.89669
696.189	-22.35609
696.356	-250.34823
696.523	178.80916
696.69	201.58305
696.857	-84.35544
697.024	21.19378
697.191	64.67891
697.358	331.06943
697.525	-91.2525
697.692	-26.94408
697.858	108.09999
698.025	44.08872
698.192	-111.95364
698.359	-243.41232
698.526	167.41574
698.693	-54.48728
698.86	-31.53279
699.027	-139.57851
699.193	-29.23834
699.36	57.81711
699.527	-102.75129
699.694	-52.19101
699.861	73.82549
700.027	85.25474
700.194	-31.53279
700.361	-107.35209
700.528	240.25934
700.694	48.66556
700.861	-275.79467
701.028	44.08872
701.195	258.44293
701.361	278.88651
701.528	-130.36724
701.694	-6.30382
701.861	-95.85146
702.028	151.4577
702.194	-20.06236
702.361	-211.06744
702.528	117.23318
702.694	121.79871
702.861	-40.7124
703.027	-114.25469
703.194	12.03079
703.36	119.51603
703.527	-98.15122
703.693	50.95372
703.86	233.4377
704.026	7.44822
704.193	-181.0662
704.359	50.95372
704.526	39.51116
