Data from Sun spf500_Subt2__0__09-57-04-231.txt Node

Date: Tue Sep 23 09:57:04 EDT 2025
User: brett
Spectrometer: USB4F03499
Trigger mode: 4
Integration Time (sec): 1.000000E-1
Scans to average: 1
Electric dark correction enabled: true
Nonlinearity correction enabled: true
Boxcar width: 0
XAxis mode: Wavelengths
Number of Pixels in Spectrum: 3648
>>>>>Begin Spectral Data<<<<<
0	37.47513
0.225	37.47513
0.449	37.47513
0.674	-22.46314
0.898	-1.72772
1.123	-54.40904
1.347	-26.92236
1.572	48.69896
1.796	87.7655
2.021	46.40542
2.245	64.52737
2.469	-17.77688
2.694	-47.501
2.918	-102.81472
3.143	-45.35631
3.367	41.78287
3.591	5.16185
3.815	34.93768
4.04	872.32252
4.264	1181.13028
4.488	1193.79247
4.712	1178.67716
4.936	1133.57792
5.161	1104.83127
5.385	1176.53756
5.609	1130.33451
5.833	1108.33171
6.057	1314.58437
6.281	1114.91846
6.505	1222.30837
6.729	1181.04431
6.953	1303.84844
7.177	1184.87765
7.401	1134.68102
7.625	1202.45751
7.849	1157.6065
8.073	1229.10769
8.297	1258.19989
8.521	1160.38739
8.744	1191.69453
8.968	1349.43468
9.192	1347.13731
9.416	1312.77038
9.64	1271.23947
9.863	1343.91197
10.087	1268.68006
10.311	1204.45941
10.535	1219.27392
10.758	1314.7392
10.982	1232.24307
11.205	1201.30211
11.429	1278.38885
11.653	1319.79305
11.876	1291.52329
12.1	1330.23513
12.323	1388.99007
12.547	1305.54622
12.77	1363.7311
12.994	1375.95188
13.217	1358.58171
13.441	1305.81593
13.664	1431.91709
13.887	1336.84307
14.111	1493.6777
14.334	1283.1047
14.557	1313.18939
14.781	1400.38642
15.004	1293.89842
15.227	1391.41661
15.451	1445.29723
15.674	1335.58508
15.897	1388.53476
16.12	1370.66195
16.343	1485.11022
16.567	1540.07691
16.79	1404.67378
17.013	1423.86824
17.236	1533.61871
17.459	1685.61912
17.682	1576.97259
17.905	1681.25798
18.128	1708.05091
18.351	1640.12843
18.574	1614.29397
18.797	1709.10227
19.02	1655.08126
19.243	1836.96581
19.466	1797.33432
19.689	1844.46326
19.911	1875.86715
20.134	1919.81384
20.357	1956.78134
20.58	1927.1879
20.803	2097.10501
21.025	2052.36252
21.248	1977.90728
21.471	2019.92647
21.694	2228.83475
21.916	2379.01428
22.139	2467.95847
22.362	2282.58024
22.584	2390.48018
22.807	2601.90718
23.029	2516.70085
23.252	2595.03682
23.475	2932.7994
23.697	2805.10948
23.92	2979.86643
24.142	2940.38901
24.365	3000.86906
24.587	3100.00684
24.809	3245.47826
25.032	3361.08888
25.254	3379.2018
25.477	3661.2762
25.699	3839.02592
25.921	3898.83895
26.144	3901.28801
26.366	4241.24718
26.588	4334.11197
26.81	4582.12962
27.033	4645.04338
27.255	4900.25712
27.477	5227.19199
27.699	5376.09773
27.921	5478.12403
28.144	5638.75639
28.366	5951.84735
28.588	6366.58944
28.81	6610.73479
29.032	6973.78112
29.254	7223.69182
29.476	7475.62315
29.698	7677.51622
29.92	8109.81573
30.142	8795.93574
30.364	8973.56065
30.586	9531.93674
30.808	9492.6566
31.029	10324.63713
31.251	10475.48056
31.473	11016.67832
31.695	11438.98828
31.917	11828.72641
32.139	12140.60168
32.36	12658.05459
32.582	13329.20724
32.804	13644.86967
33.026	14172.55184
33.247	14521.14941
33.469	15128.16294
33.691	15827.58005
33.912	16330.20108
34.134	16510.45648
34.355	16869.01825
34.577	17928.48134
34.798	18363.83192
35.02	18700.29729
35.242	18838.64923
35.463	20136.75436
35.684	20354.63888
35.906	20940.04265
36.127	21703.44791
36.349	21941.38695
36.57	23473.19899
36.792	24443.58432
37.013	24685.91084
37.234	25150.24096
37.456	25483.29723
37.677	26992.12648
37.898	27582.7076
38.119	27747.88482
38.341	28674.4653
38.562	29486.11641
38.783	30462.7249
39.004	30403.45519
39.225	31303.88968
39.447	32895.34888
39.668	34206.04648
39.889	34581.7321
40.11	35329.12314
40.331	36072.94278
40.552	37398.31912
40.773	38506.62143
40.994	39030.95732
41.215	40535.95322
41.436	41614.6086
41.657	42675.51
41.878	43987.08864
42.099	45274.91524
42.32	47356.5341
42.54	48784.87585
42.761	50002.76617
42.982	51275.05967
43.203	53486.86345
43.424	55194.2971
43.645	55192.11754
43.865	57949.86283
44.086	57769.02829
44.307	59793.61393
44.527	61958.08651
44.748	63477.34878
44.969	64553.44416
45.189	63808.97919
45.41	64660.73231
45.631	65583.19567
45.851	65665.50871
46.072	65706.75189
46.292	65619.75091
46.513	65741.16591
46.733	65594.61435
46.954	65720.5126
47.174	65782.51689
47.395	65800.91421
47.615	65651.77389
47.836	65644.90889
48.056	65752.64635
48.276	65709.04489
48.497	65642.62092
48.717	65647.19705
48.937	65606.03741
49.158	65727.3954
49.378	65725.10095
49.598	65699.87398
49.818	65628.89679
50.038	65633.47079
50.259	65741.16591
50.479	65777.9194
50.699	65706.75189
50.919	65702.16643
51.139	65683.83182
51.359	65711.33807
51.579	65729.69003
51.799	65727.3954
52.02	65713.63143
52.24	65676.95931
52.46	65718.2187
52.68	65734.27984
52.899	65679.24997
53.119	65704.45907
53.339	65745.75754
53.559	65695.2896
53.779	65615.17904
53.999	65635.75805
54.219	65571.78139
54.439	65757.2398
54.658	65791.71407
54.878	65692.99769
55.098	65731.98484
55.318	65670.08841
55.538	65642.62092
55.757	65692.99769
55.977	65704.45907
56.197	65633.47079
56.416	65706.75189
56.636	65704.45907
56.855	65727.3954
57.075	65642.62092
57.295	65738.87037
57.514	65780.21805
57.734	65676.95931
57.953	65692.99769
58.173	65683.83182
58.392	65720.5126
58.612	65729.69003
58.831	65734.27984
59.051	65672.37853
59.27	65606.03741
59.489	65688.41439
59.709	65702.16643
59.928	65722.80669
60.147	65706.75189
60.367	65731.98484
60.586	65654.06258
60.805	65713.63143
61.024	65695.2896
61.244	65775.62093
61.463	65709.04489
61.682	65686.12302
61.901	65674.66883
62.12	65731.98484
62.34	65695.2896
62.559	65699.87398
62.778	65576.34658
62.997	65720.5126
63.216	65764.13135
63.435	65757.2398
63.654	65606.03741
63.873	65718.2187
64.092	65704.45907
64.311	65644.90889
64.53	65683.83182
64.749	65702.16643
64.968	65690.70595
65.187	65787.11511
65.405	65704.45907
65.624	65699.87398
65.843	65679.24997
66.062	65688.41439
66.281	65651.77389
66.499	65775.62093
66.718	65757.2398
66.937	65674.66883
67.156	65690.70595
67.374	65729.69003
67.593	65592.33026
67.812	65699.87398
68.03	65711.33807
68.249	65759.5368
68.467	65729.69003
68.686	65663.21913
68.905	65651.77389
69.123	65821.62534
69.342	65695.2896
69.56	65725.10095
69.779	65798.6139
69.997	65672.37853
70.216	65713.63143
70.434	65688.41439
70.652	65658.6405
70.871	65704.45907
71.089	65731.98484
71.307	65773.32265
71.526	65681.5408
71.744	65738.87037
71.962	65731.98484
72.181	65736.57501
72.399	65729.69003
72.617	65686.12302
72.835	65670.08841
73.054	65738.87037
73.272	65715.92497
73.49	65727.3954
73.708	65780.21805
73.926	65771.02455
74.144	65766.4289
74.362	65681.5408
74.58	65715.92497
74.798	65713.63143
75.016	65697.5817
75.234	65729.69003
75.452	65704.45907
75.67	65667.79847
75.888	65741.16591
76.106	65642.62092
76.324	65775.62093
76.542	65780.21805
76.76	65699.87398
76.978	65711.33807
77.196	65743.46163
77.413	65670.08841
77.631	65647.19705
77.849	65754.94298
78.067	65665.50871
78.284	65663.21913
78.502	65720.5126
78.72	65720.5126
78.938	65775.62093
79.155	65757.2398
79.373	65711.33807
79.59	65757.2398
79.808	65720.5126
80.026	65745.75754
80.243	65729.69003
80.461	65619.75091
80.678	65603.75245
80.896	65663.21913
81.113	65692.99769
81.331	65725.10095
81.548	65519.33179
81.766	65658.6405
81.983	65681.5408
82.2	65731.98484
82.418	65787.11511
82.635	65651.77389
82.852	65555.80873
83.07	65702.16643
83.287	65713.63143
83.504	65679.24997
83.722	65606.03741
83.939	65695.2896
84.156	65599.18304
84.373	65752.64635
84.591	65711.33807
84.808	65697.5817
85.025	65658.6405
85.242	65731.98484
85.459	65690.70595
85.676	65702.16643
85.893	65768.72663
86.11	65683.83182
86.327	65686.12302
86.544	65697.5817
86.761	65727.3954
86.978	65658.6405
87.195	65692.99769
87.412	65803.2147
87.629	65748.05362
87.846	65709.04489
88.063	65624.3235
88.28	65702.16643
88.497	65711.33807
88.713	65741.16591
88.93	65766.4289
89.147	65727.3954
89.364	65667.79847
89.58	65695.2896
89.797	65667.79847
90.014	65697.5817
90.231	65644.90889
90.447	65722.80669
90.664	65667.79847
90.881	65676.95931
91.097	65631.1837
91.314	65638.0455
91.53	65715.92497
91.747	65686.12302
91.963	65750.34989
92.18	65702.16643
92.396	65702.16643
92.613	65688.41439
92.829	65787.11511
93.046	65771.02455
93.262	65761.83398
93.479	65670.08841
93.695	65676.95931
93.911	65711.33807
94.128	65761.83398
94.344	65624.3235
94.56	65663.21913
94.777	65810.1173
94.993	65741.16591
95.209	65635.75805
95.426	65482.89905
95.642	65764.13135
95.858	65725.10095
96.074	65709.04489
96.29	65775.62093
96.506	65704.45907
96.723	65686.12302
96.939	65757.2398
97.155	65745.75754
97.371	65695.2896
97.587	65727.3954
97.803	65729.69003
98.019	65720.5126
98.235	65663.21913
98.451	65752.64635
98.667	65606.03741
98.883	65743.46163
99.099	65775.62093
99.315	65748.05362
99.53	65688.41439
99.746	65720.5126
99.962	65754.94298
100.178	65711.33807
100.394	65713.63143
100.61	65780.21805
100.825	65665.50871
101.041	65743.46163
101.257	65690.70595
101.473	65695.2896
101.688	65676.95931
101.904	65734.27984
102.12	65702.16643
102.335	65688.41439
102.551	65734.27984
102.766	65642.62092
102.982	65720.5126
103.198	65741.16591
103.413	65699.87398
103.629	65731.98484
103.844	65725.10095
104.06	65713.63143
104.275	65660.92972
104.49	65679.24997
104.706	65752.64635
104.921	65116.41922
105.137	65699.87398
105.352	65633.47079
105.567	65713.63143
105.783	65690.70595
105.998	65683.83182
106.213	65665.50871
106.429	65750.34989
106.644	65734.27984
106.859	65692.99769
107.074	65567.2169
107.29	65752.64635
107.505	65718.2187
107.72	65647.19705
107.935	65651.77389
108.15	65683.83182
108.365	65764.13135
108.58	65660.92972
108.795	65654.06258
109.01	65660.92972
109.226	65784.81591
109.441	65546.68533
109.656	65764.13135
109.871	65596.89861
110.085	65665.50871
110.3	65695.2896
110.515	65773.32265
110.73	65610.60787
110.945	65722.80669
111.16	65665.50871
111.375	65670.08841
111.59	65718.2187
111.804	65688.41439
112.019	65690.70595
112.234	65727.3954
112.449	65665.50871
112.663	65704.45907
112.878	65727.3954
113.093	65706.75189
113.308	65619.75091
113.522	65704.45907
113.737	65826.22985
113.951	65674.66883
114.166	65706.75189
114.381	65695.2896
114.595	65718.2187
114.81	65688.41439
115.024	65702.16643
115.239	65674.66883
115.453	65736.57501
115.668	65720.5126
115.882	65667.79847
116.097	65720.5126
116.311	65803.2147
116.525	65695.2896
116.74	65810.1173
116.954	65658.6405
117.169	65706.75189
117.383	65688.41439
117.597	65644.90889
117.811	65704.45907
118.026	65619.75091
118.24	65656.35145
118.454	65709.04489
118.668	65711.33807
118.883	65711.33807
119.097	65692.99769
119.311	65692.99769
119.525	65695.2896
119.739	65699.87398
119.953	65720.5126
120.167	65578.62943
120.381	65729.69003
120.595	65695.2896
120.809	65736.57501
121.023	65681.5408
121.237	65720.5126
121.451	65729.69003
121.665	65725.10095
121.879	65692.99769
122.093	65628.89679
122.307	65800.91421
122.521	65741.16591
122.735	65628.89679
122.949	65725.10095
123.163	65780.21805
123.376	65663.21913
123.59	65642.62092
123.804	65699.87398
124.018	65736.57501
124.231	65748.05362
124.445	65771.02455
124.659	65626.61005
124.872	65608.32256
125.086	65704.45907
125.3	65699.87398
125.513	65681.5408
125.727	65736.57501
125.94	65683.83182
126.154	65704.45907
126.368	65752.64635
126.581	65727.3954
126.795	65736.57501
127.008	65731.98484
127.222	65764.13135
127.435	65752.64635
127.648	65750.34989
127.862	65679.24997
128.075	65743.46163
128.289	65660.92972
128.502	65754.94298
128.715	65690.70595
128.929	65805.51538
129.142	65731.98484
129.355	65702.16643
129.568	65640.33312
129.782	65679.24997
129.995	65624.3235
130.208	65725.10095
130.421	65745.75754
130.634	65738.87037
130.848	65660.92972
131.061	65624.3235
131.274	65665.50871
131.487	65764.13135
131.7	65736.57501
131.913	65663.21913
132.126	65709.04489
132.339	65612.89337
132.552	65523.88898
132.765	65631.1837
132.978	65709.04489
133.191	65731.98484
133.404	65667.79847
133.617	65727.3954
133.83	65679.24997
134.043	65757.2398
134.255	65782.51689
134.468	65681.5408
134.681	65777.9194
134.894	65819.32336
135.107	65748.05362
135.319	65670.08841
135.532	65697.5817
135.745	65663.21913
135.958	65715.92497
136.17	65789.4145
136.383	65692.99769
136.596	65741.16591
136.808	65713.63143
137.021	65651.77389
137.233	65743.46163
137.446	65686.12302
137.659	65725.10095
137.871	65576.34658
138.084	65715.92497
138.296	65676.95931
138.509	65711.33807
138.721	65745.75754
138.934	65692.99769
139.146	65679.24997
139.358	65738.87037
139.571	65617.46489
139.783	65622.03712
139.996	65697.5817
140.208	65642.62092
140.42	65649.48538
140.632	65676.95931
140.845	65729.69003
141.057	65789.4145
141.269	65736.57501
141.481	65711.33807
141.694	65757.2398
141.906	65690.70595
142.118	65807.81625
142.33	65683.83182
142.542	65764.13135
142.754	65672.37853
142.967	65796.31377
143.179	65750.34989
143.391	65638.0455
143.603	65729.69003
143.815	65626.61005
144.027	65706.75189
144.239	65599.18304
144.451	65697.5817
144.663	65709.04489
144.875	65633.47079
145.086	65601.46766
145.298	65654.06258
145.51	65731.98484
145.722	65635.75805
145.934	65725.10095
146.146	65729.69003
146.358	65713.63143
146.569	65764.13135
146.781	65679.24997
146.993	65761.83398
147.205	65615.17904
147.416	65715.92497
147.628	65706.75189
147.84	65665.50871
148.051	65713.63143
148.263	65679.24997
148.475	65752.64635
148.686	65718.2187
148.898	65642.62092
149.109	65626.61005
149.321	65754.94298
149.532	65633.47079
149.744	65690.70595
149.955	65667.79847
150.167	65722.80669
150.378	65709.04489
150.59	65738.87037
150.801	65777.9194
151.013	65764.13135
151.224	65626.61005
151.435	65713.63143
151.647	65626.61005
151.858	65681.5408
152.069	65713.63143
152.281	65715.92497
152.492	65686.12302
152.703	65720.5126
152.914	65585.47906
153.126	65681.5408
153.337	65686.12302
153.548	65782.51689
153.759	65676.95931
153.97	65761.83398
154.181	65745.75754
154.392	65656.35145
154.604	65773.32265
154.815	65736.57501
155.026	65670.08841
155.237	65713.63143
155.448	65606.03741
155.659	65688.41439
155.87	65695.2896
156.081	65674.66883
156.292	65743.46163
156.502	65775.62093
156.713	65672.37853
156.924	65649.48538
157.135	65692.99769
157.346	65709.04489
157.557	65672.37853
157.768	65738.87037
157.978	65780.21805
158.189	65683.83182
158.4	65745.75754
158.611	65683.83182
158.821	65633.47079
159.032	65722.80669
159.243	65654.06258
159.453	65702.16643
159.664	65702.16643
159.875	65663.21913
160.085	65738.87037
160.296	65663.21913
160.507	65722.80669
160.717	65748.05362
160.928	65660.92972
161.138	65865.39835
161.349	65720.5126
161.559	65787.11511
161.77	65718.2187
161.98	65741.16591
162.19	65667.79847
162.401	65722.80669
162.611	65656.35145
162.822	65729.69003
163.032	65722.80669
163.242	65736.57501
163.453	65656.35145
163.663	65759.5368
163.873	65683.83182
164.084	65745.75754
164.294	65757.2398
164.504	65706.75189
164.714	65688.41439
164.924	65690.70595
165.135	65741.16591
165.345	65660.92972
165.555	65699.87398
165.765	65647.19705
165.975	65656.35145
166.185	65704.45907
166.395	65731.98484
166.605	65773.32265
166.815	65761.83398
167.025	65720.5126
167.235	65622.03712
167.445	65819.32336
167.655	65683.83182
167.865	65713.63143
168.075	65697.5817
168.285	65713.63143
168.495	65695.2896
168.705	65631.1837
168.915	65606.03741
169.124	65670.08841
169.334	65672.37853
169.544	65676.95931
169.754	65713.63143
169.964	65667.79847
170.173	65642.62092
170.383	65688.41439
170.593	65695.2896
170.802	65651.77389
171.012	65754.94298
171.222	65718.2187
171.431	65759.5368
171.641	65725.10095
171.851	65780.21805
172.06	65738.87037
172.27	65741.16591
172.479	65674.66883
172.689	65736.57501
172.898	65683.83182
173.108	65727.3954
173.317	65660.92972
173.527	65766.4289
173.736	65771.02455
173.945	65697.5817
174.155	65658.6405
174.364	65660.92972
174.574	65697.5817
174.783	65709.04489
174.992	65647.19705
175.202	65706.75189
175.411	65649.48538
175.62	65736.57501
175.829	65750.34989
176.039	65686.12302
176.248	65656.35145
176.457	65709.04489
176.666	65624.3235
176.875	65741.16591
177.084	65670.08841
177.294	65748.05362
177.503	65761.83398
177.712	65619.75091
177.921	65743.46163
178.13	65711.33807
178.339	65798.6139
178.548	65731.98484
178.757	65699.87398
178.966	65660.92972
179.175	65674.66883
179.384	65718.2187
179.593	65695.2896
179.802	65773.32265
180.011	65699.87398
180.219	65720.5126
180.428	65690.70595
180.637	65690.70595
180.846	65660.92972
181.055	65692.99769
181.263	65718.2187
181.472	65615.17904
181.681	65748.05362
181.89	65683.83182
182.098	65617.46489
182.307	65725.10095
182.516	65686.12302
182.724	65702.16643
182.933	65665.50871
183.142	65789.4145
183.35	65686.12302
183.559	65692.99769
183.767	65709.04489
183.976	65738.87037
184.184	65752.64635
184.393	65679.24997
184.601	65738.87037
184.81	65619.75091
185.018	65743.46163
185.227	65681.5408
185.435	65761.83398
185.644	65665.50871
185.852	65807.81625
186.06	65663.21913
186.269	65663.21913
186.477	65658.6405
186.685	65706.75189
186.894	65617.46489
187.102	65702.16643
187.31	65633.47079
187.518	65706.75189
187.727	65791.71407
187.935	65768.72663
188.143	65709.04489
188.351	65676.95931
188.559	65768.72663
188.768	65631.1837
188.976	65651.77389
189.184	65667.79847
189.392	65665.50871
189.6	65674.66883
189.808	65594.61435
190.016	65736.57501
190.224	65725.10095
190.432	65695.2896
190.64	65699.87398
190.848	65690.70595
191.056	65642.62092
191.264	65681.5408
191.472	65706.75189
191.679	65722.80669
191.887	65715.92497
192.095	65798.6139
192.303	65679.24997
192.511	65729.69003
192.719	65805.51538
192.926	65649.48538
193.134	65805.51538
193.342	65734.27984
193.55	65713.63143
193.757	65706.75189
193.965	65683.83182
194.173	65667.79847
194.38	65773.32265
194.588	65748.05362
194.796	65727.3954
195.003	65651.77389
195.211	65748.05362
195.418	65729.69003
195.626	65796.31377
195.833	65690.70595
196.041	65647.19705
196.248	65706.75189
196.456	65649.48538
196.663	65606.03741
196.871	65736.57501
197.078	65688.41439
197.285	65713.63143
197.493	65688.41439
197.7	65569.49906
197.908	65681.5408
198.115	65722.80669
198.322	65692.99769
198.529	65764.13135
198.737	65782.51689
198.944	65688.41439
199.151	65780.21805
199.358	65745.75754
199.566	65823.9275
199.773	65615.17904
199.98	65711.33807
200.187	65741.16591
200.394	65704.45907
200.601	65583.19567
200.809	65794.01383
201.016	65681.5408
201.223	65674.66883
201.43	65789.4145
201.637	65731.98484
201.844	65736.57501
202.051	65810.1173
202.258	65686.12302
202.465	65727.3954
202.672	65798.6139
202.878	65704.45907
203.085	65731.98484
203.292	65686.12302
203.499	65656.35145
203.706	65704.45907
203.913	65702.16643
204.12	65764.13135
204.326	65745.75754
204.533	65757.2398
204.74	65647.19705
204.947	65695.2896
205.153	65706.75189
205.36	65690.70595
205.567	65796.31377
205.773	65789.4145
205.98	65667.79847
206.187	65711.33807
206.393	65702.16643
206.6	65725.10095
206.806	65766.4289
207.013	65640.33312
207.22	65647.19705
207.426	65757.2398
207.633	65697.5817
207.839	65631.1837
208.046	65663.21913
208.252	65665.50871
208.458	65660.92972
208.665	65688.41439
208.871	65727.3954
209.078	65619.75091
209.284	65711.33807
209.49	65722.80669
209.697	65725.10095
209.903	65764.13135
210.109	65729.69003
210.316	65663.21913
210.522	65743.46163
210.728	65681.5408
210.934	65485.17481
211.14	65725.10095
211.347	65784.81591
211.553	65670.08841
211.759	65692.99769
211.965	65647.19705
212.171	65670.08841
212.377	65635.75805
212.583	65697.5817
212.789	65734.27984
212.996	65683.83182
213.202	65649.48538
213.408	65690.70595
213.614	65697.5817
213.82	65745.75754
214.025	65729.69003
214.231	65775.62093
214.437	65734.27984
214.643	65631.1837
214.849	65695.2896
215.055	65702.16643
215.261	65759.5368
215.467	65692.99769
215.672	65773.32265
215.878	65633.47079
216.084	65752.64635
216.29	65692.99769
216.496	65617.46489
216.701	65660.92972
216.907	65754.94298
217.113	65695.2896
217.318	65626.61005
217.524	65738.87037
217.73	65750.34989
217.935	65718.2187
218.141	65665.50871
218.346	65683.83182
218.552	65715.92497
218.758	65683.83182
218.963	65672.37853
219.169	65681.5408
219.374	65692.99769
219.58	65692.99769
219.785	65713.63143
219.991	65640.33312
220.196	65794.01383
220.401	65727.3954
220.607	65697.5817
220.812	65612.89337
221.017	65702.16643
221.223	65649.48538
221.428	65624.3235
221.633	65644.90889
221.839	65692.99769
222.044	65752.64635
222.249	65683.83182
222.454	65676.95931
222.66	65679.24997
222.865	65725.10095
223.07	65578.62943
223.275	65699.87398
223.48	65667.79847
223.686	65752.64635
223.891	65782.51689
224.096	65775.62093
224.301	65592.33026
224.506	65748.05362
224.711	65654.06258
224.916	65734.27984
225.121	65727.3954
225.326	65725.10095
225.531	65752.64635
225.736	65731.98484
225.941	65761.83398
226.146	65711.33807
226.351	65681.5408
226.555	65679.24997
226.76	65674.66883
226.965	65777.9194
227.17	65720.5126
227.375	65743.46163
227.58	65727.3954
227.784	65658.6405
227.989	65817.02157
228.194	65738.87037
228.399	65667.79847
228.603	65759.5368
228.808	65734.27984
229.013	65644.90889
229.217	65697.5817
229.422	65750.34989
229.627	65711.33807
229.831	65731.98484
230.036	65663.21913
230.24	65690.70595
230.445	65667.79847
230.649	65690.70595
230.854	65681.5408
231.058	65720.5126
231.263	65709.04489
231.467	65676.95931
231.672	65715.92497
231.876	65697.5817
232.081	65647.19705
232.285	65670.08841
232.489	65667.79847
232.694	65736.57501
232.898	65647.19705
233.102	65603.75245
233.307	65690.70595
233.511	65713.63143
233.715	65665.50871
233.919	65642.62092
234.124	65757.2398
234.328	65796.31377
234.532	65692.99769
234.736	65654.06258
234.94	65748.05362
235.145	65688.41439
235.349	65676.95931
235.553	65583.19567
235.757	65592.33026
235.961	65750.34989
236.165	65743.46163
236.369	65658.6405
236.573	65660.92972
236.777	65757.2398
236.981	65683.83182
237.185	65619.75091
237.389	65718.2187
237.593	65697.5817
237.797	65667.79847
238.001	65663.21913
238.205	65679.24997
238.409	65734.27984
238.612	65738.87037
238.816	65576.34658
239.02	65702.16643
239.224	65715.92497
239.428	65665.50871
239.631	65688.41439
239.835	65672.37853
240.039	65702.16643
240.243	65651.77389
240.446	65626.61005
240.65	65752.64635
240.854	65851.56801
241.057	65676.95931
241.261	65752.64635
241.464	65773.32265
241.668	65649.48538
241.872	65738.87037
242.075	65699.87398
242.279	65688.41439
242.482	65736.57501
242.686	65727.3954
242.889	65635.75805
243.093	65738.87037
243.296	65642.62092
243.499	65699.87398
243.703	65702.16643
243.906	65761.83398
244.11	65672.37853
244.313	65706.75189
244.516	65681.5408
244.72	65642.62092
244.923	65764.13135
245.126	65608.32256
245.33	65679.24997
245.533	65754.94298
245.736	65681.5408
245.939	65718.2187
246.142	65686.12302
246.346	65734.27984
246.549	65780.21805
246.752	65738.87037
246.955	65715.92497
247.158	65674.66883
247.361	65720.5126
247.564	65660.92972
247.767	65619.75091
247.971	65702.16643
248.174	65670.08841
248.377	65720.5126
248.58	65780.21805
248.783	65745.75754
248.985	65706.75189
249.188	65720.5126
249.391	65672.37853
249.594	65702.16643
249.797	65750.34989
250	65622.03712
250.203	65718.2187
250.406	65725.10095
250.609	65752.64635
250.811	65729.69003
251.014	65729.69003
251.217	65761.83398
251.42	65745.75754
251.622	65578.62943
251.825	65642.62092
252.028	65729.69003
252.231	65734.27984
252.433	65748.05362
252.636	65640.33312
252.838	65667.79847
253.041	65704.45907
253.244	65654.06258
253.446	65603.75245
253.649	65690.70595
253.851	65647.19705
254.054	65725.10095
254.256	65638.0455
254.459	65729.69003
254.661	65672.37853
254.864	65750.34989
255.066	65546.68533
255.269	65709.04489
255.471	65674.66883
255.673	65658.6405
255.876	65729.69003
256.078	65674.66883
256.281	65686.12302
256.483	65702.16643
256.685	65757.2398
256.887	65692.99769
257.09	65683.83182
257.292	65748.05362
257.494	65658.6405
257.696	65718.2187
257.899	65748.05362
258.101	65606.03741
258.303	65679.24997
258.505	65777.9194
258.707	65711.33807
258.909	65738.87037
259.111	65798.6139
259.314	65679.24997
259.516	65729.69003
259.718	65642.62092
259.92	65688.41439
260.122	65715.92497
260.324	65729.69003
260.526	65622.03712
260.728	65686.12302
260.93	65667.79847
261.131	65784.81591
261.333	65743.46163
261.535	65706.75189
261.737	65734.27984
261.939	65660.92972
262.141	65697.5817
262.343	65654.06258
262.544	65672.37853
262.746	65672.37853
262.948	65754.94298
263.15	65704.45907
263.352	65633.47079
263.553	65702.16643
263.755	65754.94298
263.957	65628.89679
264.158	65665.50871
264.36	65688.41439
264.562	65651.77389
264.763	65738.87037
264.965	65670.08841
265.166	65722.80669
265.368	65626.61005
265.569	65731.98484
265.771	65727.3954
265.972	65663.21913
266.174	65731.98484
266.375	65718.2187
266.577	65704.45907
266.778	65672.37853
266.98	65702.16643
267.181	65752.64635
267.383	65773.32265
267.584	65624.3235
267.785	65709.04489
267.987	65729.69003
268.188	65777.9194
268.389	65663.21913
268.591	65773.32265
268.792	65771.02455
268.993	65674.66883
269.194	65729.69003
269.396	65638.0455
269.597	65690.70595
269.798	65741.16591
269.999	65688.41439
270.2	65771.02455
270.401	65633.47079
270.603	65731.98484
270.804	65748.05362
271.005	65750.34989
271.206	65702.16643
271.407	65674.66883
271.608	65628.89679
271.809	65706.75189
272.01	65692.99769
272.211	65720.5126
272.412	65658.6405
272.613	65651.77389
272.814	65754.94298
273.015	65727.3954
273.216	65748.05362
273.416	65722.80669
273.617	65647.19705
273.818	65672.37853
274.019	65715.92497
274.22	65656.35145
274.421	65686.12302
274.621	65722.80669
274.822	65688.41439
275.023	65692.99769
275.224	65699.87398
275.424	65782.51689
275.625	65814.71996
275.826	65709.04489
276.026	65752.64635
276.227	65715.92497
276.428	65667.79847
276.628	65660.92972
276.829	65663.21913
277.029	65715.92497
277.23	65692.99769
277.43	65670.08841
277.631	65626.61005
277.831	65784.81591
278.032	65761.83398
278.232	65715.92497
278.433	65731.98484
278.633	65624.3235
278.834	65734.27984
279.034	65663.21913
279.234	65633.47079
279.435	65704.45907
279.635	65683.83182
279.835	65711.33807
280.036	65622.03712
280.236	65796.31377
280.436	65731.98484
280.637	65704.45907
280.837	65638.0455
281.037	65709.04489
281.237	65709.04489
281.438	65722.80669
281.638	65731.98484
281.838	65727.3954
282.038	65727.3954
282.238	65704.45907
282.438	65713.63143
282.638	65711.33807
282.838	65729.69003
283.038	65683.83182
283.239	65725.10095
283.439	65706.75189
283.639	65610.60787
283.839	65741.16591
284.039	65681.5408
284.238	65706.75189
284.438	65663.21913
284.638	65757.2398
284.838	65734.27984
285.038	65736.57501
285.238	65759.5368
285.438	65699.87398
285.638	65697.5817
285.838	65702.16643
286.037	65667.79847
286.237	65741.16591
286.437	65748.05362
286.637	65725.10095
286.836	65722.80669
287.036	65773.32265
287.236	65670.08841
287.436	65757.2398
287.635	65692.99769
287.835	65702.16643
288.034	65706.75189
288.234	65612.89337
288.434	65679.24997
288.633	65715.92497
288.833	65750.34989
289.032	65805.51538
289.232	65692.99769
289.431	65692.99769
289.631	65729.69003
289.83	65624.3235
290.03	65752.64635
290.229	65741.16591
290.429	65812.41854
290.628	65642.62092
290.828	65775.62093
291.027	65798.6139
291.226	65725.10095
291.426	65686.12302
291.625	65569.49906
291.824	65720.5126
292.024	65720.5126
292.223	65752.64635
292.422	65711.33807
292.621	65729.69003
292.821	65676.95931
293.02	65715.92497
293.219	65644.90889
293.418	65750.34989
293.617	65656.35145
293.817	65743.46163
294.016	65615.17904
294.215	65647.19705
294.414	65789.4145
294.613	65725.10095
294.812	65711.33807
295.011	65738.87037
295.21	65688.41439
295.409	65777.9194
295.608	65823.9275
295.807	65743.46163
296.006	65679.24997
296.205	65713.63143
296.404	65578.62943
296.603	65731.98484
296.802	65617.46489
297.001	65741.16591
297.2	65738.87037
297.398	65757.2398
297.597	65644.90889
297.796	65782.51689
297.995	65766.4289
298.194	65663.21913
298.392	65727.3954
298.591	65720.5126
298.79	65764.13135
298.988	65731.98484
299.187	65727.3954
299.386	65697.5817
299.585	65715.92497
299.783	65699.87398
299.982	65635.75805
300.18	65734.27984
300.379	65722.80669
300.578	65725.10095
300.776	65782.51689
300.975	65688.41439
301.173	65631.1837
301.372	65715.92497
301.57	65734.27984
301.769	65738.87037
301.967	65667.79847
302.166	65715.92497
302.364	65759.5368
302.562	65711.33807
302.761	65665.50871
302.959	65720.5126
303.157	65674.66883
303.356	65748.05362
303.554	65656.35145
303.752	65715.92497
303.951	65681.5408
304.149	65594.61435
304.347	65688.41439
304.546	65658.6405
304.744	65695.2896
304.942	65679.24997
305.14	65748.05362
305.338	65773.32265
305.536	65725.10095
305.735	65727.3954
305.933	65734.27984
306.131	65743.46163
306.329	65656.35145
306.527	65773.32265
306.725	65720.5126
306.923	65667.79847
307.121	65610.60787
307.319	65745.75754
307.517	65748.05362
307.715	65697.5817
307.913	65587.76262
308.111	65674.66883
308.309	65690.70595
308.507	65722.80669
308.705	65711.33807
308.903	65766.4289
309.1	65647.19705
309.298	65651.77389
309.496	65692.99769
309.694	65729.69003
309.892	65754.94298
310.089	65761.83398
310.287	65711.33807
310.485	65741.16591
310.683	65697.5817
310.88	65715.92497
311.078	65722.80669
311.276	65658.6405
311.473	65709.04489
311.671	65699.87398
311.869	65656.35145
312.066	65706.75189
312.264	65704.45907
312.461	65626.61005
312.659	65647.19705
312.856	65658.6405
313.054	65736.57501
313.251	65731.98484
313.449	65644.90889
313.646	65713.63143
313.844	65757.2398
314.041	65713.63143
314.239	65642.62092
314.436	65633.47079
314.634	65601.46766
314.831	65658.6405
315.028	65780.21805
315.226	65713.63143
315.423	65642.62092
315.62	65748.05362
315.817	65695.2896
316.015	65587.76262
316.212	65743.46163
316.409	65663.21913
316.606	65679.24997
316.804	65725.10095
317.001	65759.5368
317.198	65660.92972
317.395	65660.92972
317.592	65660.92972
317.789	65711.33807
317.987	65688.41439
318.184	65741.16591
318.381	65777.9194
318.578	65663.21913
318.775	65773.32265
318.972	65768.72663
319.169	65766.4289
319.366	65658.6405
319.563	65695.2896
319.76	65734.27984
319.957	65725.10095
320.154	65738.87037
320.351	65656.35145
320.547	65679.24997
320.744	65718.2187
320.941	65596.89861
321.138	65711.33807
321.335	65697.5817
321.532	65745.75754
321.728	65665.50871
321.925	65764.13135
322.122	65585.47906
322.319	65812.41854
322.515	65656.35145
322.712	65670.08841
322.909	65782.51689
323.105	65787.11511
323.302	65647.19705
323.499	65626.61005
323.695	65674.66883
323.892	65704.45907
324.089	65660.92972
324.285	65727.3954
324.482	65736.57501
324.678	65787.11511
324.875	65741.16591
325.071	65690.70595
325.268	65695.2896
325.464	65720.5126
325.661	65699.87398
325.857	65713.63143
326.054	65748.05362
326.25	65674.66883
326.446	65672.37853
326.643	65692.99769
326.839	65715.92497
327.035	65796.31377
327.232	65647.19705
327.428	65791.71407
327.624	65784.81591
327.821	65702.16643
328.017	65761.83398
328.213	65738.87037
328.409	65702.16643
328.606	65681.5408
328.802	65683.83182
328.998	65718.2187
329.194	65780.21805
329.39	65658.6405
329.586	65702.16643
329.783	65663.21913
329.979	65690.70595
330.175	65720.5126
330.371	65702.16643
330.567	65718.2187
330.763	65690.70595
330.959	65754.94298
331.155	65727.3954
331.351	65736.57501
331.547	65672.37853
331.743	65812.41854
331.939	65709.04489
332.135	65736.57501
332.33	65635.75805
332.526	65699.87398
332.722	65683.83182
332.918	65651.77389
333.114	65754.94298
333.31	65599.18304
333.506	65626.61005
333.701	65704.45907
333.897	65814.71996
334.093	65660.92972
334.289	65766.4289
334.484	65601.46766
334.68	65617.46489
334.876	65644.90889
335.071	65711.33807
335.267	65640.33312
335.463	65722.80669
335.658	65720.5126
335.854	65830.83511
336.049	65706.75189
336.245	65736.57501
336.441	65731.98484
336.636	65683.83182
336.832	65665.50871
337.027	65583.19567
337.223	65771.02455
337.418	65628.89679
337.613	65761.83398
337.809	65679.24997
338.004	65754.94298
338.2	65697.5817
338.395	65748.05362
338.591	65654.06258
338.786	65761.83398
338.981	65757.2398
339.177	65766.4289
339.372	65692.99769
339.567	65633.47079
339.762	65665.50871
339.958	65833.13802
340.153	65791.71407
340.348	65163.68637
340.543	65713.63143
340.739	65757.2398
340.934	65727.3954
341.129	65674.66883
341.324	65674.66883
341.519	65782.51689
341.714	65846.95939
341.909	65761.83398
342.104	65702.16643
342.299	65711.33807
342.495	65734.27984
342.69	65752.64635
342.885	65738.87037
343.08	65453.32972
343.275	65619.75091
343.469	65722.80669
343.664	65667.79847
343.859	65711.33807
344.054	65773.32265
344.249	65754.94298
344.444	65699.87398
344.639	65734.27984
344.834	65759.5368
345.029	65706.75189
345.223	65681.5408
345.418	65761.83398
345.613	65692.99769
345.808	65711.33807
346.003	65715.92497
346.197	65711.33807
346.392	65695.2896
346.587	65599.18304
346.781	65725.10095
346.976	65683.83182
347.171	65628.89679
347.365	65734.27984
347.56	65731.98484
347.755	65654.06258
347.949	65729.69003
348.144	65759.5368
348.338	65697.5817
348.533	65692.99769
348.727	65743.46163
348.922	65660.92972
349.116	65775.62093
349.311	65704.45907
349.505	65775.62093
349.7	65759.5368
349.894	65748.05362
350.089	65683.83182
350.283	65718.2187
350.477	65702.16643
350.672	65720.5126
350.866	65642.62092
351.06	65697.5817
351.255	65702.16643
351.449	65706.75189
351.643	65706.75189
351.837	65663.21913
352.032	65803.2147
352.226	65752.64635
352.42	65757.2398
352.614	65640.33312
352.809	65743.46163
353.003	65699.87398
353.197	65686.12302
353.391	65722.80669
353.585	65688.41439
353.779	65784.81591
353.973	65640.33312
354.167	65676.95931
354.361	65764.13135
354.555	65651.77389
354.749	65720.5126
354.943	65743.46163
355.137	65679.24997
355.331	65727.3954
355.525	65741.16591
355.719	65679.24997
355.913	65718.2187
356.107	65690.70595
356.301	65720.5126
356.495	65715.92497
356.689	65706.75189
356.883	65679.24997
357.076	65775.62093
357.27	65644.90889
357.464	65741.16591
357.658	65642.62092
357.852	65713.63143
358.045	65681.5408
358.239	65754.94298
358.433	65729.69003
358.626	65741.16591
358.82	65713.63143
359.014	65692.99769
359.207	65702.16643
359.401	65794.01383
359.595	65681.5408
359.788	65734.27984
359.982	65706.75189
360.175	65672.37853
360.369	65729.69003
360.563	65702.16643
360.756	65713.63143
360.95	65690.70595
361.143	65800.91421
361.336	65851.56801
361.53	65757.2398
361.723	65743.46163
361.917	65686.12302
362.11	65745.75754
362.304	65720.5126
362.497	65711.33807
362.69	65585.47906
362.884	65695.2896
363.077	65734.27984
363.27	65727.3954
363.464	65702.16643
363.657	65743.46163
363.85	65660.92972
364.043	65729.69003
364.237	65702.16643
364.43	65674.66883
364.623	65670.08841
364.816	65759.5368
365.009	65649.48538
365.202	65734.27984
365.396	65633.47079
365.589	65695.2896
365.782	65695.2896
365.975	65775.62093
366.168	65665.50871
366.361	65628.89679
366.554	65711.33807
366.747	65743.46163
366.94	65676.95931
367.133	65715.92497
367.326	65727.3954
367.519	65729.69003
367.712	65837.7444
367.905	65725.10095
368.098	65750.34989
368.291	65608.32256
368.484	65711.33807
368.676	65681.5408
368.869	65782.51689
369.062	65722.80669
369.255	65706.75189
369.448	65670.08841
369.64	65695.2896
369.833	65734.27984
370.026	65660.92972
370.219	65777.9194
370.411	65606.03741
370.604	65791.71407
370.797	65695.2896
370.989	65667.79847
371.182	65784.81591
371.375	65656.35145
371.567	65686.12302
371.76	65718.2187
371.952	65787.11511
372.145	65690.70595
372.338	65683.83182
372.53	65692.99769
372.723	65771.02455
372.915	65718.2187
373.108	65745.75754
373.3	65679.24997
373.493	65672.37853
373.685	65670.08841
373.877	65764.13135
374.07	65654.06258
374.262	65644.90889
374.455	65754.94298
374.647	65812.41854
374.839	65647.19705
375.032	65702.16643
375.224	65702.16643
375.416	65761.83398
375.609	65265.20904
375.801	65709.04489
375.993	65754.94298
376.185	65766.4289
376.378	65718.2187
376.57	65697.5817
376.762	65692.99769
376.954	65679.24997
377.146	65665.50871
377.338	65757.2398
377.53	65748.05362
377.723	65663.21913
377.915	65752.64635
378.107	65711.33807
378.299	65743.46163
378.491	65738.87037
378.683	65692.99769
378.875	65734.27984
379.067	65644.90889
379.259	65672.37853
379.451	65720.5126
379.643	65656.35145
379.835	65686.12302
380.027	65640.33312
380.219	65752.64635
380.41	65706.75189
380.602	65699.87398
380.794	65798.6139
380.986	65743.46163
381.178	65713.63143
381.37	65720.5126
381.561	65704.45907
381.753	65622.03712
381.945	65635.75805
382.137	65702.16643
382.328	65731.98484
382.52	65743.46163
382.712	65736.57501
382.903	65640.33312
383.095	65722.80669
383.287	65768.72663
383.478	65681.5408
383.67	65741.16591
383.862	65699.87398
384.053	65692.99769
384.245	65738.87037
384.436	65670.08841
384.628	65697.5817
384.819	65725.10095
385.011	65665.50871
385.202	65718.2187
385.394	65738.87037
385.585	65612.89337
385.777	65734.27984
385.968	65775.62093
386.159	65711.33807
386.351	65704.45907
386.542	65676.95931
386.734	65628.89679
386.925	65729.69003
387.116	65688.41439
387.308	65692.99769
387.499	65754.94298
387.69	65670.08841
387.881	65628.89679
388.073	65704.45907
388.264	65702.16643
388.455	65789.4145
388.646	65656.35145
388.837	65674.66883
389.029	65697.5817
389.22	65722.80669
389.411	65743.46163
389.602	65699.87398
389.793	65734.27984
389.984	65713.63143
390.175	65683.83182
390.366	65670.08841
390.557	65766.4289
390.748	65706.75189
390.939	65782.51689
391.13	65729.69003
391.321	65692.99769
391.512	65725.10095
391.703	65711.33807
391.894	65738.87037
392.085	65761.83398
392.276	65752.64635
392.467	65766.4289
392.658	65748.05362
392.849	65702.16643
393.039	65731.98484
393.23	65715.92497
393.421	65690.70595
393.612	65706.75189
393.803	65713.63143
393.993	65612.89337
394.184	65676.95931
394.375	65764.13135
394.566	65702.16643
394.756	65690.70595
394.947	65654.06258
395.138	65736.57501
395.328	65640.33312
395.519	65660.92972
395.709	65766.4289
395.9	65608.32256
396.091	65736.57501
396.281	65738.87037
396.472	65731.98484
396.662	65757.2398
396.853	65748.05362
397.043	65729.69003
397.234	65734.27984
397.424	65688.41439
397.615	65688.41439
397.805	65697.5817
397.996	65787.11511
398.186	65651.77389
398.376	65633.47079
398.567	65745.75754
398.757	65715.92497
398.947	65846.95939
399.138	65663.21913
399.328	65651.77389
399.518	65768.72663
399.709	65798.6139
399.899	65711.33807
400.089	65748.05362
400.279	65702.16643
400.47	65709.04489
400.66	65706.75189
400.85	65635.75805
401.04	65672.37853
401.23	65647.19705
401.421	65686.12302
401.611	65729.69003
401.801	65670.08841
401.991	65702.16643
402.181	65720.5126
402.371	65688.41439
402.561	65640.33312
402.751	65722.80669
402.941	65674.66883
403.131	65633.47079
403.321	65743.46163
403.511	65692.99769
403.701	65663.21913
403.891	65702.16643
404.081	65699.87398
404.271	65750.34989
404.461	65631.1837
404.651	65759.5368
404.84	65681.5408
405.03	65672.37853
405.22	65748.05362
405.41	65736.57501
405.6	65649.48538
405.789	65654.06258
405.979	65638.0455
406.169	65777.9194
406.359	65711.33807
406.548	65761.83398
406.738	65761.83398
406.928	65635.75805
407.118	65670.08841
407.307	65656.35145
407.497	65704.45907
407.686	65647.19705
407.876	65754.94298
408.066	65734.27984
408.255	65743.46163
408.445	65736.57501
408.634	65663.21913
408.824	65683.83182
409.013	65727.3954
409.203	65649.48538
409.392	65683.83182
409.582	65688.41439
409.771	65782.51689
409.961	65741.16591
410.15	65670.08841
410.34	65681.5408
410.529	65757.2398
410.718	65697.5817
410.908	65569.49906
411.097	65757.2398
411.286	65741.16591
411.476	65771.02455
411.665	65731.98484
411.854	65722.80669
412.044	65766.4289
412.233	65681.5408
412.422	65681.5408
412.611	65699.87398
412.8	65658.6405
412.99	65745.75754
413.179	65665.50871
413.368	65738.87037
413.557	65764.13135
413.746	65715.92497
413.935	65738.87037
414.124	65784.81591
414.313	65649.48538
414.503	65683.83182
414.692	65741.16591
414.881	65628.89679
415.07	65644.90889
415.259	65718.2187
415.448	65642.62092
415.637	65699.87398
415.826	65681.5408
416.015	65773.32265
416.203	65718.2187
416.392	65667.79847
416.581	65729.69003
416.77	65688.41439
416.959	65676.95931
417.148	65736.57501
417.337	65748.05362
417.525	65692.99769
417.714	65674.66883
417.903	65752.64635
418.092	65748.05362
418.281	65681.5408
418.469	65690.70595
418.658	65695.2896
418.847	65725.10095
419.035	65759.5368
419.224	65773.32265
419.413	65750.34989
419.601	65692.99769
419.79	65782.51689
419.979	65718.2187
420.167	65752.64635
420.356	65715.92497
420.544	65679.24997
420.733	65748.05362
420.921	65727.3954
421.11	65679.24997
421.299	65665.50871
421.487	65709.04489
421.675	65704.45907
421.864	65713.63143
422.052	65731.98484
422.241	65612.89337
422.429	65725.10095
422.618	65715.92497
422.806	65692.99769
422.994	65725.10095
423.183	65670.08841
423.371	65725.10095
423.559	65683.83182
423.748	65656.35145
423.936	65729.69003
424.124	65814.71996
424.312	65750.34989
424.501	65692.99769
424.689	65715.92497
424.877	65713.63143
425.065	65711.33807
425.254	65729.69003
425.442	65567.2169
425.63	65635.75805
425.818	65626.61005
426.006	65715.92497
426.194	65622.03712
426.382	65640.33312
426.57	65672.37853
426.758	65688.41439
426.946	65725.10095
427.134	65663.21913
427.323	65741.16591
427.51	65711.33807
427.698	65697.5817
427.886	65667.79847
428.074	65631.1837
428.262	65812.41854
428.45	65702.16643
428.638	65695.2896
428.826	65670.08841
429.014	65743.46163
429.202	65817.02157
429.39	65780.21805
429.577	65640.33312
429.765	65642.62092
429.953	65638.0455
430.141	65713.63143
430.329	65670.08841
430.516	65738.87037
430.704	65578.62943
430.892	65727.3954
431.079	65800.91421
431.267	65642.62092
431.455	65777.9194
431.643	65631.1837
431.83	65679.24997
432.018	65667.79847
432.205	65727.3954
432.393	65775.62093
432.581	65711.33807
432.768	65642.62092
432.956	65647.19705
433.143	65688.41439
433.331	65660.92972
433.518	65727.3954
433.706	65709.04489
433.893	65601.46766
434.081	65734.27984
434.268	65617.46489
434.456	65750.34989
434.643	65738.87037
434.83	65651.77389
435.018	65651.77389
435.205	65734.27984
435.392	65734.27984
435.58	65807.81625
435.767	65649.48538
435.954	65704.45907
436.142	65642.62092
436.329	65743.46163
436.516	65725.10095
436.703	65667.79847
436.891	65628.89679
437.078	65654.06258
437.265	65649.48538
437.452	65658.6405
437.639	65692.99769
437.827	65674.66883
438.014	65656.35145
438.201	65709.04489
438.388	65651.77389
438.575	65702.16643
438.762	65704.45907
438.949	65718.2187
439.136	65663.21913
439.323	65610.60787
439.51	65711.33807
439.697	65633.47079
439.884	65638.0455
440.071	65663.21913
440.258	65635.75805
440.445	65647.19705
440.632	65453.32972
440.819	65656.35145
441.006	65585.47906
441.193	65670.08841
441.38	65633.47079
441.566	65695.2896
441.753	65704.45907
441.94	65638.0455
442.127	65702.16643
442.314	65622.03712
442.5	65599.18304
442.687	65615.17904
442.874	65642.62092
443.061	65649.48538
443.247	65633.47079
443.434	65544.40491
443.621	65711.33807
443.807	65656.35145
443.994	65533.00544
444.181	65670.08841
444.367	65699.87398
444.554	65615.17904
444.74	65640.33312
444.927	65670.08841
445.114	65612.89337
445.3	65487.45074
445.487	65564.93492
445.673	65580.91247
445.86	65610.60787
446.046	65635.75805
446.233	65599.18304
446.419	65631.1837
446.605	65526.16784
446.792	65530.72607
446.978	65670.08841
447.165	65606.03741
447.351	65631.1837
447.537	65644.90889
447.724	65654.06258
447.91	65539.8446
448.096	65564.93492
448.283	65501.10992
448.469	65603.75245
448.655	65587.76262
448.841	65535.28499
449.028	65574.0639
449.214	65560.37147
449.4	65537.56471
449.586	65558.09001
449.773	65530.72607
449.959	65558.09001
450.145	65444.23726
450.331	65574.0639
450.517	65603.75245
450.703	65482.89905
450.889	65576.34658
451.075	65521.6103
451.261	65446.51012
451.447	65439.69204
451.633	65519.33179
451.819	65507.94183
452.005	65437.41968
452.191	65505.66436
452.377	65487.45074
452.563	65464.69913
452.749	65469.24809
452.935	65444.23726
453.121	65405.62445
453.307	65435.1475
453.493	65378.39759
453.679	65419.24693
453.865	65389.73919
454.05	65362.52636
454.236	65407.89444
454.422	65473.79773
454.608	65430.60364
454.794	65451.05635
454.979	65460.15086
455.165	65428.33196
455.351	65369.32731
455.537	65373.86212
455.722	65299.12251
455.908	65380.66557
456.094	65317.22472
456.279	65296.86047
456.465	65262.94945
456.65	65357.99321
456.836	65326.27977
457.022	65314.96137
457.207	65330.80828
457.393	65283.29167
457.578	65335.33745
457.764	65238.10456
457.949	65310.43517
458.135	65249.39526
458.32	65385.20205
458.506	65337.60228
458.691	65301.38472
458.877	65281.03077
459.062	65346.66326
459.248	65353.46074
459.433	65229.07489
459.618	65206.51196
459.804	65303.64708
459.989	65211.02327
460.174	65206.51196
460.36	65233.5894
460.545	65247.1368
460.73	65262.94945
460.915	65251.65389
461.101	65260.69001
461.286	65229.07489
461.471	65247.1368
461.656	65360.2597
461.842	65206.51196
462.027	65235.8469
462.212	65206.51196
462.397	65188.47314
462.582	65220.04779
462.767	65118.66846
462.952	65314.96137
463.138	65199.74621
463.323	65123.16743
463.508	65220.04779
463.693	65179.45754
463.878	65211.02327
464.063	65120.91787
464.248	65156.92967
464.433	65156.92967
464.618	65156.92967
464.803	65152.42599
464.988	65154.67775
465.173	65087.19319
465.357	65127.66702
465.542	65132.16723
465.727	65035.54974
465.912	65084.94613
466.097	65141.16955
466.282	65141.16955
466.467	65084.94613
466.651	65040.03724
466.836	65040.03724
467.021	65197.49127
467.206	65091.68779
467.391	65150.17439
467.575	65111.92119
467.76	65102.92701
467.945	65017.60584
468.129	65049.01409
468.314	65010.8794
468.499	65127.66702
468.683	64999.67171
468.868	65080.45246
469.053	65069.22099
469.237	65053.50343
469.422	64999.67171
469.606	65055.74834
469.791	65118.66846
469.975	65037.79341
470.16	65064.72949
470.344	65028.81963
470.529	65100.67886
470.713	64932.50489
470.898	65093.93533
471.082	65055.74834
471.267	65102.92701
471.451	65087.19319
471.636	65204.25655
471.82	65093.93533
472.004	64963.83255
472.189	65082.69921
472.373	65156.92967
472.557	65138.91874
472.742	65125.41714
472.926	65134.41758
473.11	65145.67165
473.295	65051.25868
473.479	65060.23861
473.663	65069.22099
473.847	65132.16723
474.031	65123.16743
474.216	65118.66846
474.4	65143.42052
474.584	65136.66808
474.768	65098.43086
474.952	65033.30621
475.136	65031.06285
475.32	65163.68637
475.505	65051.25868
475.689	64997.43063
475.873	65071.46698
476.057	65062.48397
476.241	65109.67241
476.425	65035.54974
476.609	64999.67171
476.793	65075.95941
476.977	65145.67165
477.161	65040.03724
477.345	65022.0909
477.529	65138.91874
477.713	64983.98731
477.896	65120.91787
478.08	64966.07136
478.264	65033.30621
478.448	65057.99339
478.632	64988.46781
478.816	65197.49127
478.999	65004.15433
479.183	65087.19319
479.367	65055.74834
479.551	64892.26943
479.735	64995.1897
479.918	65031.06285
480.102	64963.83255
480.286	65001.91294
480.469	65069.22099
480.653	64966.07136
480.837	64981.74729
481.02	65008.63756
481.204	64968.31033
481.388	64939.21549
481.571	64840.92706
481.755	64977.2677
481.938	64968.31033
482.122	65004.15433
482.305	64907.91083
482.489	64825.31649
482.673	64869.93711
482.856	64943.68997
483.04	64936.97847
483.223	64928.0319
483.406	64948.16504
483.59	64943.68997
483.773	64887.80178
483.957	64968.31033
484.14	64858.77647
484.323	64823.08699
484.507	64865.47242
484.69	64898.972
484.874	64970.54944
485.057	64916.85204
485.24	64872.16968
485.423	65008.63756
485.607	64849.8506
485.79	64907.91083
485.973	64863.24029
486.156	64798.57205
486.34	64814.17044
486.523	64796.34429
486.706	64856.54478
486.889	64928.0319
487.072	64823.08699
487.256	64803.02801
487.439	64863.24029
487.622	64805.25621
487.805	64858.77647
487.988	64829.77592
488.171	64798.57205
488.354	64787.43468
488.537	64852.08185
488.72	64805.25621
488.903	64780.75398
489.086	64834.23594
489.269	64794.11667
489.452	64789.66186
489.635	64738.47284
489.818	64629.6675
490.001	64867.70469
490.184	64827.54613
490.367	64825.31649
490.55	64729.57811
490.732	64623.01682
490.915	64767.39647
491.098	64729.57811
491.281	64854.31324
491.464	64780.75398
491.647	64807.48455
491.829	64814.17044
492.012	64722.90855
492.195	64669.59774
492.378	64758.49432
492.56	64614.15119
492.743	64636.31941
492.926	64607.50341
493.108	64747.36985
493.291	64727.35478
493.474	64589.78205
493.656	64605.28776
493.839	64549.94095
494.022	64616.36739
494.204	64545.51687
494.387	64572.06944
494.569	64709.57324
494.752	64578.71065
494.934	64603.07225
495.117	64589.78205
495.299	64627.45047
495.482	64558.79071
495.664	64512.35355
495.847	64594.21157
496.029	64634.10197
496.212	64382.20164
496.394	64605.28776
496.576	64558.79071
496.759	64651.84541
496.941	64474.80493
497.123	64320.59362
497.306	64627.45047
497.488	64541.09334
497.67	64609.7192
497.853	64603.07225
498.035	64477.01261
498.217	64410.83985
498.4	64481.42836
498.582	64631.88466
498.764	64556.57807
498.946	64485.84464
499.128	64499.09669
499.311	64527.82599
499.493	64620.80021
499.675	64488.05298
499.857	64450.52925
500.039	64413.0437
500.221	64450.52925
500.403	64430.67923
500.585	64329.38859
500.767	64391.01105
500.949	64430.67923
501.132	64454.94182
501.314	64488.05298
501.496	64346.9847
501.678	64561.0035
501.859	64417.45179
502.041	64408.63612
502.223	64408.63612
502.405	64441.7057
502.587	64344.78474
502.769	64368.99141
502.951	64366.79016
503.133	64395.41654
503.315	64450.52925
503.497	64424.06492
503.678	64415.24768
503.86	64503.51511
504.042	64298.6151
504.224	64329.38859
504.406	64388.8085
504.587	64443.91139
504.769	64397.61948
504.951	64373.3943
505.132	64481.42836
505.314	64415.24768
505.496	64377.79771
505.678	64443.91139
505.859	64426.26956
506.041	64377.79771
506.222	64393.21373
506.404	64388.8085
506.586	64402.02574
506.767	64338.18562
506.949	64446.11722
507.13	64395.41654
507.312	64404.22907
507.493	64263.47585
507.675	64379.99961
507.856	64377.79771
508.038	64468.1827
508.219	64446.11722
508.401	64443.91139
508.582	64349.18479
508.764	64386.60608
508.945	64353.58536
509.126	64441.7057
509.308	64424.06492
509.489	64408.63612
509.671	64465.97556
509.852	64373.3943
510.033	64465.97556
510.214	64439.50015
510.396	64479.22041
510.577	64545.51687
510.758	64362.38804
510.94	64373.3943
511.121	64408.63612
511.302	64410.83985
511.483	64446.11722
511.664	64382.20164
511.846	64494.6788
512.027	64413.0437
512.208	64477.01261
512.389	64463.76855
512.57	64379.99961
512.751	64417.45179
512.932	64399.82254
513.113	64309.60276
513.294	64432.88426
513.476	64419.65604
513.657	64452.73547
513.838	64527.82599
514.019	64388.8085
514.2	64468.1827
514.381	64413.0437
514.561	64393.21373
514.742	64490.26145
514.923	64421.86041
515.104	64404.22907
515.285	64448.32317
515.466	64479.22041
515.647	64516.77358
515.828	64371.19279
516.009	64415.24768
516.189	64490.26145
516.37	64525.61524
516.551	64499.09669
516.732	64499.09669
516.913	64463.76855
517.093	64492.47006
517.274	64499.09669
517.455	64340.3852
517.636	64413.0437
517.816	64404.22907
517.997	64428.47433
518.178	64435.08942
518.358	64534.45906
518.539	64461.56167
518.72	64443.91139
518.9	64432.88426
519.081	64446.11722
519.261	64395.41654
519.442	64311.80068
519.622	64428.47433
519.803	64432.88426
519.984	64382.20164
520.164	64459.35492
520.345	64439.50015
520.525	64426.26956
520.705	64481.42836
520.886	64377.79771
521.066	64591.99674
521.247	64448.32317
521.427	64452.73547
521.608	64294.22092
521.788	64479.22041
521.968	64281.04143
522.149	64496.88768
522.329	64419.65604
522.509	64527.82599
522.69	64479.22041
522.87	64507.93406
523.05	64534.45906
523.231	64514.5635
523.411	64474.80493
523.591	64421.86041
523.771	64503.51511
523.951	64417.45179
524.132	64399.82254
524.312	64450.52925
524.492	64479.22041
524.672	64424.06492
524.852	64399.82254
525.032	64461.56167
525.213	64428.47433
525.393	64360.18718
525.573	64536.67035
525.753	64388.8085
525.933	64415.24768
526.113	64421.86041
526.293	64525.61524
526.473	64494.6788
526.653	64349.18479
526.833	64485.84464
527.013	64543.30504
527.193	64459.35492
527.373	64474.80493
527.553	64448.32317
527.733	64417.45179
527.913	64505.72452
528.092	64645.19058
528.272	64430.67923
528.452	64488.05298
528.632	64567.64266
528.812	64472.59739
528.992	64421.86041
529.171	64454.94182
529.351	64549.94095
529.531	64543.30504
529.711	64439.50015
529.89	64541.09334
530.07	64432.88426
530.25	64346.9847
530.43	64351.38501
530.609	64474.80493
530.789	64457.1483
530.969	64446.11722
531.148	64514.5635
531.328	64552.15318
531.507	64505.72452
531.687	64419.65604
531.867	64545.51687
532.046	64404.22907
532.226	64510.14374
532.405	64448.32317
532.585	64470.38998
532.764	64492.47006
532.944	64346.9847
533.123	64474.80493
533.303	64525.61524
533.482	64349.18479
533.662	64501.30583
533.841	64443.91139
534.021	64408.63612
534.2	64496.88768
534.379	64541.09334
534.559	64479.22041
534.738	64439.50015
534.917	64580.92465
535.097	64470.38998
535.276	64465.97556
535.455	64424.06492
535.635	64558.79071
535.814	64503.51511
535.993	64435.08942
536.172	64567.64266
536.352	64530.03688
536.531	64549.94095
536.71	64457.1483
536.889	64477.01261
537.068	64516.77358
537.248	64536.67035
537.427	64399.82254
537.606	64470.38998
537.785	64474.80493
537.964	64490.26145
538.143	64554.36556
538.322	64505.72452
538.501	64472.59739
538.68	64527.82599
538.859	64424.06492
539.038	64563.21641
539.217	64563.21641
539.396	64631.88466
539.575	64488.05298
539.754	64470.38998
539.933	64435.08942
540.112	64656.28265
540.291	64494.6788
540.47	64496.88768
540.649	64499.09669
540.828	64656.28265
541.007	64465.97556
541.186	64574.28304
541.364	64474.80493
541.543	64556.57807
541.722	64512.35355
541.901	64549.94095
542.08	64399.82254
542.258	64437.29472
542.437	64580.92465
542.616	64446.11722
542.795	64600.85687
542.973	64556.57807
543.152	64565.42947
543.331	64543.30504
543.509	64589.78205
543.688	64470.38998
543.867	64567.64266
544.045	64580.92465
544.224	64430.67923
544.402	64171.38785
544.581	64534.45906
544.76	64631.88466
544.938	64525.61524
545.117	64494.6788
545.295	64543.30504
545.474	64541.09334
545.652	64616.36739
545.831	64567.64266
546.009	64437.29472
546.188	64541.09334
546.366	64554.36556
546.544	64532.2479
546.723	64527.82599
546.901	64521.19414
547.08	64463.76855
547.258	64574.28304
547.436	64572.06944
547.615	64620.80021
547.793	64547.72884
547.971	64530.03688
548.15	64545.51687
548.328	64492.47006
548.506	64430.67923
548.684	64404.22907
548.863	64565.42947
549.041	64596.42653
549.219	64654.06396
549.397	64516.77358
549.576	64567.64266
549.754	64525.61524
549.932	64552.15318
550.11	64594.21157
550.288	64629.6675
550.466	64716.24026
550.644	64492.47006
550.822	64589.78205
551.001	64629.6675
551.179	64682.91786
551.357	64618.58373
551.535	64561.0035
551.713	64620.80021
551.891	64625.23358
552.069	64669.59774
552.247	64629.6675
552.425	64665.15882
552.603	64665.15882
552.781	64642.97258
552.958	64674.03722
553.136	64651.84541
553.314	64767.39647
553.492	64722.90855
553.67	64749.59446
553.848	64762.94511
554.026	64861.00831
554.204	64843.15773
554.381	64782.98074
554.559	64845.38854
554.737	64919.08772
554.915	64852.08185
555.092	64809.71303
555.27	64883.33473
555.448	64845.38854
555.626	64896.73766
555.803	64983.98731
555.981	64811.94166
556.159	64941.45265
556.336	64950.40281
556.514	65013.1214
556.692	64968.31033
556.869	64941.45265
557.047	64936.97847
557.224	64968.31033
557.402	64983.98731
557.58	64907.91083
557.757	65022.0909
557.935	65120.91787
558.112	65026.57657
558.29	65015.36354
558.467	65120.91787
558.645	65123.16743
558.822	65136.66808
559	65109.67241
559.177	65084.94613
559.354	65060.23861
559.532	65066.97517
559.709	65098.43086
559.887	65060.23861
560.064	65161.43398
560.241	65037.79341
560.419	65057.99339
560.596	65037.79341
560.773	65031.06285
560.951	65013.1214
561.128	64896.73766
561.305	65125.41714
561.482	65066.97517
561.66	65015.36354
561.837	65010.8794
562.014	65060.23861
562.191	65134.41758
562.368	65080.45246
562.546	65013.1214
562.723	65114.17012
562.9	65082.69921
563.077	65008.63756
563.254	65105.17532
563.431	65073.71312
563.608	64986.22749
563.785	65102.92701
563.962	65042.28122
564.139	65132.16723
564.317	65015.36354
564.494	65147.92294
564.671	64950.40281
564.848	65046.76964
565.025	65098.43086
565.201	65125.41714
565.378	65055.74834
565.555	65053.50343
565.732	65089.44041
565.909	65098.43086
566.086	65080.45246
566.263	65129.91705
566.44	65084.94613
566.617	65125.41714
566.794	65046.76964
566.97	65109.67241
567.147	65179.45754
567.324	65082.69921
567.501	65143.42052
567.678	65080.45246
567.854	65102.92701
568.031	65213.27916
568.208	65082.69921
568.384	65147.92294
568.561	65123.16743
568.738	65147.92294
568.915	65125.41714
569.091	65199.74621
569.268	65159.18174
569.444	65208.76753
569.621	65179.45754
569.798	65206.51196
569.974	65150.17439
570.151	65145.67165
570.327	65161.43398
570.504	65134.41758
570.681	65229.07489
570.857	65197.49127
571.034	65206.51196
571.21	65156.92967
571.387	65303.64708
571.563	65276.50946
571.739	65114.17012
571.916	65326.27977
572.092	65251.65389
572.269	65199.74621
572.445	65213.27916
572.622	65260.69001
572.798	65199.74621
572.974	65253.91268
573.151	65310.43517
573.327	65251.65389
573.503	65150.17439
573.68	65312.69819
573.856	65305.90961
574.032	65310.43517
574.208	65190.72743
574.385	65215.53521
574.561	65328.54394
574.737	65301.38472
574.913	65197.49127
575.089	65301.38472
575.266	65305.90961
575.442	65317.22472
575.618	65156.92967
575.794	65278.77003
575.97	65287.81395
576.146	65217.79142
576.322	65283.29167
576.499	65174.9507
576.675	65192.98189
576.851	65195.2365
577.027	65118.66846
577.203	65251.65389
577.379	65292.33688
577.555	65247.1368
577.731	65202.0013
577.907	64876.63526
578.083	65156.92967
578.259	65229.07489
578.435	65204.25655
578.611	65084.94613
578.786	65100.67886
578.962	65152.42599
579.138	65265.20904
579.314	65156.92967
579.49	65229.07489
579.666	65132.16723
579.842	65208.76753
580.017	65208.76753
580.193	65195.2365
580.369	65143.42052
580.545	65168.19163
580.72	65073.71312
580.896	65204.25655
581.072	65093.93533
581.248	65141.16955
581.423	65069.22099
581.599	65172.69752
581.775	65132.16723
581.95	65134.41758
582.126	65161.43398
582.302	65064.72949
582.477	65127.66702
582.653	65188.47314
582.829	65172.69752
583.004	65262.94945
583.18	65159.18174
583.355	65197.49127
583.531	65127.66702
583.706	65105.17532
583.882	65197.49127
584.057	65281.03077
584.233	65143.42052
584.408	65044.52536
584.584	65163.68637
584.759	65226.81787
584.935	65226.81787
585.11	65213.27916
585.285	65247.1368
585.461	65319.48824
585.636	65220.04779
585.812	65238.10456
585.987	65305.90961
586.162	65292.33688
586.338	65233.5894
586.513	65328.54394
586.688	65389.73919
586.863	65267.4688
587.039	65324.01576
587.214	65299.12251
587.389	65294.5986
587.564	65335.33745
587.74	65292.33688
587.915	65460.15086
588.09	65405.62445
588.265	65342.13244
588.44	65419.24693
588.615	65403.35462
588.791	65392.00801
588.966	65446.51012
589.141	65464.69913
589.316	65385.20205
589.491	65398.81547
589.666	65369.32731
589.841	65333.07278
590.016	65444.23726
590.191	65360.2597
590.366	65492.00311
590.541	65510.21948
590.716	65460.15086
590.891	65437.41968
591.066	65533.00544
591.241	65507.94183
591.416	65526.16784
591.591	65514.77529
591.766	65514.77529
591.941	65628.89679
592.116	65642.62092
592.29	65523.88898
592.465	65571.78139
592.64	65686.12302
592.815	65619.75091
592.99	65670.08841
593.165	65628.89679
593.339	65651.77389
593.514	65622.03712
593.689	65544.40491
593.864	65626.61005
594.038	65654.06258
594.213	65546.68533
594.388	65628.89679
594.562	65606.03741
594.737	65544.40491
594.912	65624.3235
595.086	65681.5408
595.261	65633.47079
595.436	65562.65311
595.61	65583.19567
595.785	65576.34658
595.959	65571.78139
596.134	65612.89337
596.309	65610.60787
596.483	65617.46489
596.658	65606.03741
596.832	65633.47079
597.007	65507.94183
597.181	65665.50871
597.356	65580.91247
597.53	65670.08841
597.704	65642.62092
597.879	65601.46766
598.053	65606.03741
598.228	65519.33179
598.402	65517.05345
598.576	65617.46489
598.751	65533.00544
598.925	65592.33026
599.1	65592.33026
599.274	65638.0455
599.448	65603.75245
599.622	65510.21948
599.797	65587.76262
599.971	65587.76262
600.145	65464.69913
600.32	65560.37147
600.494	65585.47906
600.668	65537.56471
600.842	65526.16784
601.016	65635.75805
601.191	65537.56471
601.365	65328.54394
601.539	65558.09001
601.713	65592.33026
601.887	65501.10992
602.061	65617.46489
602.235	65539.8446
602.409	65610.60787
602.583	65548.96592
602.758	65672.37853
602.932	65610.60787
603.106	65674.66883
603.28	65624.3235
603.454	65578.62943
603.628	65533.00544
603.802	65628.89679
603.976	65612.89337
604.149	65594.61435
604.323	65548.96592
604.497	65626.61005
604.671	65544.40491
604.845	65578.62943
605.019	65617.46489
605.193	65628.89679
605.367	65542.12467
605.541	65574.0639
605.714	65519.33179
605.888	65528.44687
606.062	65599.18304
606.236	65702.16643
606.41	65485.17481
606.583	65610.60787
606.757	65633.47079
606.931	65578.62943
607.105	65612.89337
607.278	65617.46489
607.452	65663.21913
607.626	65528.44687
607.799	65612.89337
607.973	65631.1837
608.147	65571.78139
608.32	65628.89679
608.494	65583.19567
608.668	65610.60787
608.841	65510.21948
609.015	65521.6103
609.188	65574.0639
609.362	65683.83182
609.535	65596.89861
609.709	65622.03712
609.882	65585.47906
610.056	65558.09001
610.229	65587.76262
610.403	65590.04635
610.576	65485.17481
610.75	65558.09001
610.923	65587.76262
611.097	65644.90889
611.27	65512.4973
611.443	65578.62943
611.617	65679.24997
611.79	65683.83182
611.963	65576.34658
612.137	65587.76262
612.31	65583.19567
612.483	65610.60787
612.657	65594.61435
612.83	65651.77389
613.003	65649.48538
613.177	65610.60787
613.35	65628.89679
613.523	65587.76262
613.696	65564.93492
613.869	65702.16643
614.043	65539.8446
614.216	65587.76262
614.389	65626.61005
614.562	65548.96592
614.735	65603.75245
614.908	65612.89337
615.082	65546.68533
615.255	65592.33026
615.428	65555.80873
615.601	65633.47079
615.774	65606.03741
615.947	65560.37147
616.12	65464.69913
616.293	65501.10992
616.466	65514.77529
616.639	65533.00544
616.812	65564.93492
616.985	65482.89905
617.158	65562.65311
617.331	65580.91247
617.504	65560.37147
617.677	65638.0455
617.85	65592.33026
618.022	65606.03741
618.195	65587.76262
618.368	65523.88898
618.541	65510.21948
618.714	65590.04635
618.887	65578.62943
619.059	65544.40491
619.232	65587.76262
619.405	65430.60364
619.578	65460.15086
619.751	65569.49906
619.923	65546.68533
620.096	65478.34805
620.269	65498.83296
620.441	65548.96592
620.614	65590.04635
620.787	65517.05345
620.96	65530.72607
621.132	65435.1475
621.305	65407.89444
621.477	65464.69913
621.65	65551.24668
621.823	65564.93492
621.995	65460.15086
622.168	65469.24809
622.34	65471.52282
622.513	65482.89905
622.685	65478.34805
622.858	65460.15086
623.03	65519.33179
623.203	65546.68533
623.375	65498.83296
623.548	65539.8446
623.72	65471.52282
623.893	65473.79773
624.065	65496.55617
624.238	65489.72684
624.41	65590.04635
624.582	65428.33196
624.755	65505.66436
624.927	65482.89905
625.1	65476.0728
625.272	65548.96592
625.444	65441.96456
625.617	65355.72689
625.789	65432.87548
625.961	65494.27956
626.133	65430.60364
626.306	65416.9761
626.478	65416.9761
626.65	65401.08496
626.822	65482.89905
626.995	65380.66557
627.167	65392.00801
627.339	65462.42491
627.511	65353.46074
627.683	65392.00801
627.855	65362.52636
628.027	65441.96456
628.2	65376.12977
628.372	65401.08496
628.544	65403.35462
628.716	65401.08496
628.888	65378.39759
629.06	65314.96137
629.232	65478.34805
629.404	65403.35462
629.576	65319.48824
629.748	65419.24693
629.92	65281.03077
630.092	65269.72872
630.264	65367.06016
630.436	65444.23726
630.608	65376.12977
630.78	65371.59463
630.952	65414.70543
631.124	65337.60228
631.295	65360.2597
631.467	65412.43493
631.639	65328.54394
631.811	65407.89444
631.983	65387.47053
632.155	65387.47053
632.326	65382.93373
632.498	65378.39759
632.67	65387.47053
632.842	65421.51794
633.014	65367.06016
633.185	65310.43517
633.357	65398.81547
633.529	65271.98881
633.7	65305.90961
633.872	65421.51794
634.044	65423.78911
634.215	65312.69819
634.387	65387.47053
634.559	65464.69913
634.73	65407.89444
634.902	65455.60327
635.074	65392.00801
635.245	65382.93373
635.417	65405.62445
635.588	65319.48824
635.76	65464.69913
635.931	65451.05635
636.103	65464.69913
636.274	65360.2597
636.446	65412.43493
636.617	65346.66326
636.789	65439.69204
636.96	65432.87548
637.132	65453.32972
637.303	65441.96456
637.474	65473.79773
637.646	65392.00801
637.817	65466.97353
637.989	65419.24693
638.16	65478.34805
638.331	65501.10992
638.503	65364.79318
638.674	65396.54615
638.845	65501.10992
639.017	65412.43493
639.188	65414.70543
639.359	65503.38705
639.53	65489.72684
639.702	65419.24693
639.873	65498.83296
640.044	65462.42491
640.215	65473.79773
640.387	65373.86212
640.558	65355.72689
640.729	65328.54394
640.9	65357.99321
641.071	65369.32731
641.242	65373.86212
641.413	65385.20205
641.585	65430.60364
641.756	65357.99321
641.927	65485.17481
642.098	65410.1646
642.269	65407.89444
642.44	65473.79773
642.611	65401.08496
642.782	65407.89444
642.953	65317.22472
643.124	65360.2597
643.295	65482.89905
643.466	65348.92892
643.637	65412.43493
643.808	65394.27699
643.979	65326.27977
644.15	65299.12251
644.32	65353.46074
644.491	65371.59463
644.662	65519.33179
644.833	65396.54615
645.004	65362.52636
645.175	65405.62445
645.346	65342.13244
645.516	65435.1475
645.687	65387.47053
645.858	65389.73919
646.029	65339.86728
646.199	65421.51794
646.37	65382.93373
646.541	65446.51012
646.712	65319.48824
646.882	65367.06016
647.053	65398.81547
647.224	65394.27699
647.394	65380.66557
647.565	65385.20205
647.736	65423.78911
647.906	65457.87698
648.077	65385.20205
648.248	65455.60327
648.418	65428.33196
648.589	65471.52282
648.759	65412.43493
648.93	65414.70543
649.1	65473.79773
649.271	65342.13244
649.441	65351.19475
649.612	65423.78911
649.782	65348.92892
649.953	65330.80828
650.123	65382.93373
650.294	65324.01576
650.464	65364.79318
650.635	65071.46698
650.805	65387.47053
650.975	65260.69001
651.146	65423.78911
651.316	65378.39759
651.487	65407.89444
651.657	65410.1646
651.827	65342.13244
651.998	65464.69913
652.168	65351.19475
652.338	65414.70543
652.508	65480.62346
652.679	65403.35462
652.849	65324.01576
653.019	65360.2597
653.189	65355.72689
653.36	65369.32731
653.53	65464.69913
653.7	65371.59463
653.87	65485.17481
654.04	65419.24693
654.211	65437.41968
654.381	65342.13244
654.551	65455.60327
654.721	65364.79318
654.891	65439.69204
655.061	65362.52636
655.231	65473.79773
655.401	65487.45074
655.571	65453.32972
655.741	65371.59463
655.911	65419.24693
656.081	65357.99321
656.251	65489.72684
656.421	65385.20205
656.591	65480.62346
656.761	65396.54615
656.931	65521.6103
657.101	65487.45074
657.271	65432.87548
657.441	65410.1646
657.611	65523.88898
657.781	65414.70543
657.951	65457.87698
658.121	65396.54615
658.291	65392.00801
658.46	65498.83296
658.63	65426.06045
658.8	65453.32972
658.97	65421.51794
659.14	65369.32731
659.309	65448.78315
659.479	65403.35462
659.649	65478.34805
659.819	65394.27699
659.988	65514.77529
660.158	65546.68533
660.328	65426.06045
660.497	65489.72684
660.667	65476.0728
660.837	65426.06045
661.006	65405.62445
661.176	65564.93492
661.346	65455.60327
661.515	65496.55617
661.685	65501.10992
661.854	65457.87698
662.024	65485.17481
662.194	65446.51012
662.363	65435.1475
662.533	65487.45074
662.702	65583.19567
662.872	65533.00544
663.041	65423.78911
663.211	65569.49906
663.38	65626.61005
663.55	65489.72684
663.719	65485.17481
663.889	65608.32256
664.058	65564.93492
664.227	65510.21948
664.397	65496.55617
664.566	65494.27956
664.735	65583.19567
664.905	65544.40491
665.074	65544.40491
665.244	65528.44687
665.413	65592.33026
665.582	65505.66436
665.751	65539.8446
665.921	65542.12467
666.09	65551.24668
666.259	65503.38705
666.428	65546.68533
666.598	65551.24668
666.767	65494.27956
666.936	65503.38705
667.105	65482.89905
667.275	65535.28499
667.444	65533.00544
667.613	65439.69204
667.782	65592.33026
667.951	65496.55617
668.12	65523.88898
668.289	65535.28499
668.458	65487.45074
668.628	65590.04635
668.797	65558.09001
668.966	65574.0639
669.135	65455.60327
669.304	65526.16784
669.473	65526.16784
669.642	65553.52762
669.811	65555.80873
669.98	65507.94183
670.149	65485.17481
670.318	65601.46766
670.487	65569.49906
670.656	65514.77529
670.824	65560.37147
670.993	65610.60787
671.162	65512.4973
671.331	65498.83296
671.5	65562.65311
671.669	65583.19567
671.838	65599.18304
672.007	65533.00544
672.175	65548.96592
672.344	65560.37147
672.513	65419.24693
672.682	65594.61435
672.85	65510.21948
673.019	65478.34805
673.188	65453.32972
673.357	65507.94183
673.525	65599.18304
673.694	65599.18304
673.863	65548.96592
674.032	65510.21948
674.2	65576.34658
674.369	65576.34658
674.537	65519.33179
674.706	65615.17904
674.875	65567.2169
675.043	65546.68533
675.212	65533.00544
675.381	65533.00544
675.549	65587.76262
675.718	65606.03741
675.886	65558.09001
676.055	65628.89679
676.223	65601.46766
676.392	65537.56471
676.56	65551.24668
676.729	65562.65311
676.897	65624.3235
677.066	65587.76262
677.234	65585.47906
677.403	65688.41439
677.571	65592.33026
677.739	65583.19567
677.908	65606.03741
678.076	65558.09001
678.244	65571.78139
678.413	65622.03712
678.581	65553.52762
678.75	65608.32256
678.918	65612.89337
679.086	65596.89861
679.254	65690.70595
679.423	65501.10992
679.591	65596.89861
679.759	65592.33026
679.928	65619.75091
680.096	65571.78139
680.264	65606.03741
680.432	65567.2169
680.6	65594.61435
680.769	65546.68533
680.937	65647.19705
681.105	65546.68533
681.273	65544.40491
681.441	65599.18304
681.609	65492.00311
681.777	65599.18304
681.945	65564.93492
682.114	65622.03712
682.282	65574.0639
682.45	65606.03741
682.618	65633.47079
682.786	65690.70595
682.954	65585.47906
683.122	65414.70543
683.29	65512.4973
683.458	65619.75091
683.626	65615.17904
683.794	65585.47906
683.962	65704.45907
684.13	65530.72607
684.298	65644.90889
684.465	65578.62943
684.633	65633.47079
684.801	65647.19705
684.969	65622.03712
685.137	65542.12467
685.305	65642.62092
685.473	65583.19567
685.64	65642.62092
685.808	65720.5126
685.976	65514.77529
686.144	65670.08841
686.312	65501.10992
686.479	65663.21913
686.647	65654.06258
686.815	65612.89337
686.983	65631.1837
687.15	65594.61435
687.318	65628.89679
687.486	65596.89861
687.653	65583.19567
687.821	65635.75805
687.989	65585.47906
688.156	65676.95931
688.324	65651.77389
688.492	65594.61435
688.659	65738.87037
688.827	65567.2169
688.994	65660.92972
689.162	65642.62092
689.329	65535.28499
689.497	65663.21913
689.665	65704.45907
689.832	65592.33026
690	65574.0639
690.167	65672.37853
690.335	65633.47079
690.502	65656.35145
690.669	65592.33026
690.837	65635.75805
691.004	65544.40491
691.172	65542.12467
691.339	65526.16784
691.507	65695.2896
691.674	65660.92972
691.841	65670.08841
692.009	65709.04489
692.176	65624.3235
692.343	65670.08841
692.511	65631.1837
692.678	65638.0455
692.845	65624.3235
693.013	65679.24997
693.18	65590.04635
693.347	65610.60787
693.514	65713.63143
693.682	65612.89337
693.849	65658.6405
694.016	65638.0455
694.183	65569.49906
694.35	65752.64635
694.518	65665.50871
694.685	65667.79847
694.852	65663.21913
695.019	65757.2398
695.186	65626.61005
695.353	65548.96592
695.52	65603.75245
695.687	65599.18304
695.855	65617.46489
696.022	65615.17904
696.189	65660.92972
696.356	65679.24997
696.523	65729.69003
696.69	65546.68533
696.857	65757.2398
697.024	65585.47906
697.191	65676.95931
697.358	65587.76262
697.525	65569.49906
697.692	65619.75091
697.858	65695.2896
698.025	65603.75245
698.192	65608.32256
698.359	65709.04489
698.526	65619.75091
698.693	65626.61005
698.86	65670.08841
699.027	65649.48538
699.193	65715.92497
699.36	65670.08841
699.527	65681.5408
699.694	65704.45907
699.861	65704.45907
700.027	65546.68533
700.194	65592.33026
700.361	65608.32256
700.528	65599.18304
700.694	65654.06258
700.861	65690.70595
701.028	65622.03712
701.195	65622.03712
701.361	65612.89337
701.528	65660.92972
701.694	65603.75245
701.861	65729.69003
702.028	65530.72607
702.194	65590.04635
702.361	65660.92972
702.528	65658.6405
702.694	65651.77389
702.861	65505.66436
703.027	65619.75091
703.194	65676.95931
703.36	65622.03712
703.527	65720.5126
703.693	65567.2169
703.86	65555.80873
704.026	65644.90889
704.193	65796.31377
704.359	65642.62092
704.526	65692.99769
