Data from Sun spf800_Subt2__0__10-06-22-270.txt Node

Date: Tue Sep 23 10:06:22 EDT 2025
User: brett
Spectrometer: USB4F03499
Trigger mode: 4
Integration Time (sec): 1.000000E-1
Scans to average: 1
Electric dark correction enabled: true
Nonlinearity correction enabled: true
Boxcar width: 0
XAxis mode: Wavelengths
Number of Pixels in Spectrum: 3648
>>>>>Begin Spectral Data<<<<<
0	-4.42342
0.225	-4.42342
0.449	-4.42342
0.674	-78.21799
0.898	2.49542
1.123	-18.1251
1.347	-4.3899
1.572	-27.34534
1.796	69.04916
2.021	-13.57276
2.245	114.30258
2.469	-25.04369
2.694	-86.85745
2.918	20.82473
3.143	-31.95251
3.367	-20.43619
3.591	23.12556
3.815	59.7315
4.04	3594.48504
4.264	4990.39915
4.488	4959.85129
4.712	4956.68613
4.936	4751.89246
5.161	4905.38894
5.385	4797.91023
5.609	4879.16921
5.833	4908.11924
6.057	4991.68622
6.281	5048.48201
6.505	4953.00297
6.729	4884.98738
6.953	4970.75221
7.177	5066.76581
7.401	4833.52685
7.625	4961.45559
7.849	4908.05789
8.073	5017.40063
8.297	5125.80472
8.521	4835.33679
8.744	5044.66701
8.968	5168.81464
9.192	5189.16471
9.416	5158.60793
9.64	5028.17602
9.863	4966.07674
10.087	5056.09639
10.311	5084.4737
10.535	5064.23413
10.758	5009.11369
10.982	5176.59942
11.205	4824.21701
11.429	5108.20893
11.653	5150.26871
11.876	5026.02663
12.1	5201.8264
12.323	5133.56624
12.547	4982.31933
12.77	5229.75997
12.994	5118.90375
13.217	5223.74653
13.441	5275.39703
13.664	5351.06728
13.887	5259.42302
14.111	5188.23989
14.334	5000.68194
14.557	5211.98438
14.781	5298.49308
15.004	5322.61405
15.227	5217.87017
15.451	5347.43843
15.674	5297.73499
15.897	5454.9416
16.12	5327.79924
16.343	5244.24168
16.567	5487.05531
16.79	5350.96382
17.013	5373.60195
17.236	5362.09457
17.459	5536.42535
17.682	5381.67756
17.905	5540.52607
18.128	5513.76561
18.351	5428.41859
18.574	5379.22353
18.797	5342.98476
19.02	5546.67687
19.243	5535.01539
19.466	5438.97274
19.689	5567.44203
19.911	5470.91127
20.134	5594.98742
20.357	5486.24699
20.58	5551.25945
20.803	5528.43925
21.025	5773.78562
21.248	5425.75045
21.471	5749.18875
21.694	5699.36835
21.916	5649.28359
22.139	5664.0615
22.362	5584.19057
22.584	5607.46944
22.807	5746.4493
23.029	5585.14146
23.252	5753.90434
23.475	5786.60488
23.697	5765.2594
23.92	5870.03965
24.142	5826.24119
24.365	5785.91045
24.587	5534.37493
24.809	5937.13344
25.032	5875.83331
25.254	5853.00618
25.477	5964.09005
25.699	6042.81156
25.921	6017.30713
26.144	5906.39076
26.366	5927.21846
26.588	6114.85622
26.81	6051.91968
27.033	6091.02755
27.255	5876.66551
27.477	6074.98288
27.699	6206.59531
27.921	6159.14245
28.144	5945.30761
28.366	6169.94333
28.588	6333.62225
28.81	6425.05751
29.032	6434.62835
29.254	6483.75922
29.476	6323.60908
29.698	6626.22638
29.92	6576.88026
30.142	6753.13962
30.364	6791.97186
30.586	6903.34213
30.808	7040.15352
31.029	7080.812
31.251	6983.26956
31.473	7210.31827
31.695	7213.4778
31.917	7319.88135
32.139	7443.13934
32.36	7533.85181
32.582	7619.95376
32.804	7716.04979
33.026	7747.51902
33.247	7993.3139
33.469	8422.41403
33.691	8415.8691
33.912	8497.51774
34.134	8557.5336
34.355	8798.37111
34.577	9142.56166
34.798	9373.13767
35.02	9520.07833
35.242	9641.46973
35.463	10121.92819
35.684	10147.82816
35.906	10310.09787
36.127	10763.2389
36.349	11116.80114
36.57	11759.81318
36.792	12279.08939
37.013	12408.08639
37.234	12647.58917
37.456	13110.15176
37.677	13806.27084
37.898	14384.67381
38.119	14290.47379
38.341	14930.77159
38.562	15863.23204
38.783	16167.26327
39.004	16728.28356
39.225	17251.10008
39.447	18301.42347
39.668	19288.05811
39.889	19744.04775
40.11	20349.24048
40.331	21373.06136
40.552	22326.80444
40.773	23357.83033
40.994	24308.59667
41.215	25333.98137
41.436	26629.26303
41.657	27817.09351
41.878	29256.29064
42.099	31055.30281
42.32	32382.08347
42.54	33620.58601
42.761	35167.30607
42.982	36780.27559
43.203	37991.41731
43.424	40422.13073
43.645	40334.75605
43.865	42514.99096
44.086	43146.03346
44.307	45427.32291
44.527	47336.79499
44.748	48872.46832
44.969	50900.08625
45.189	50840.03824
45.41	51748.25966
45.631	55865.86816
45.851	55856.16246
46.072	57380.29813
46.292	58905.01603
46.513	60068.57522
46.733	63730.06502
46.954	65141.03065
47.174	65630.24908
47.395	65648.6464
47.615	65499.50608
47.836	65492.64108
48.056	65600.37854
48.276	65556.77708
48.497	65490.35311
48.717	65494.92924
48.937	65453.7696
49.158	65575.12759
49.378	65572.83314
49.598	65547.60617
49.818	65476.62898
50.038	65481.20298
50.259	65588.8981
50.479	65625.65159
50.699	65554.48408
50.919	65549.89862
51.139	65531.56401
51.359	65559.07026
51.579	65577.42222
51.799	65575.12759
52.02	65561.36362
52.24	65524.6915
52.46	65565.95089
52.68	65582.01203
52.899	65526.98216
53.119	65552.19126
53.339	65593.48973
53.559	65543.02179
53.779	65462.91123
53.999	65483.49024
54.219	65419.51358
54.439	65604.97199
54.658	65639.44626
54.878	65540.72988
55.098	65579.71703
55.318	65517.8206
55.538	65490.35311
55.757	65540.72988
55.977	65552.19126
56.197	65481.20298
56.416	65554.48408
56.636	65552.19126
56.855	65575.12759
57.075	65490.35311
57.295	65586.60256
57.514	65627.95024
57.734	65524.6915
57.953	65540.72988
58.173	65531.56401
58.392	65568.24479
58.612	65577.42222
58.831	65582.01203
59.051	65520.11072
59.27	65453.7696
59.489	65536.14658
59.709	65549.89862
59.928	65570.53888
60.147	65554.48408
60.367	65579.71703
60.586	65501.79477
60.805	65561.36362
61.024	65543.02179
61.244	65623.35312
61.463	65556.77708
61.682	65533.85521
61.901	65522.40102
62.12	65579.71703
62.34	65543.02179
62.559	65547.60617
62.778	65424.07877
62.997	65568.24479
63.216	65611.86354
63.435	65604.97199
63.654	65453.7696
63.873	65565.95089
64.092	65552.19126
64.311	65492.64108
64.53	65531.56401
64.749	65549.89862
64.968	65538.43814
65.187	65634.8473
65.405	65552.19126
65.624	65547.60617
65.843	65526.98216
66.062	65536.14658
66.281	65499.50608
66.499	65623.35312
66.718	65604.97199
66.937	65522.40102
67.156	65538.43814
67.374	65577.42222
67.593	65440.06245
67.812	65547.60617
68.03	65559.07026
68.249	65607.26899
68.467	65577.42222
68.686	65510.95132
68.905	65499.50608
69.123	65669.35753
69.342	65543.02179
69.56	65572.83314
69.779	65646.34609
69.997	65520.11072
70.216	65561.36362
70.434	65536.14658
70.652	65506.37269
70.871	65552.19126
71.089	65579.71703
71.307	65621.05484
71.526	65529.27299
71.744	65586.60256
71.962	65579.71703
72.181	65584.3072
72.399	65577.42222
72.617	65533.85521
72.835	65517.8206
73.054	65586.60256
73.272	65563.65716
73.49	65575.12759
73.708	65627.95024
73.926	65618.75674
74.144	65614.16109
74.362	65529.27299
74.58	65563.65716
74.798	65561.36362
75.016	65545.31389
75.234	65577.42222
75.452	65552.19126
75.67	65515.53066
75.888	65588.8981
76.106	65490.35311
76.324	65623.35312
76.542	65627.95024
76.76	65547.60617
76.978	65559.07026
77.196	65591.19382
77.413	65517.8206
77.631	65494.92924
77.849	65602.67517
78.067	65513.2409
78.284	65510.95132
78.502	65568.24479
78.72	65568.24479
78.938	65623.35312
79.155	65604.97199
79.373	65559.07026
79.59	65604.97199
79.808	65568.24479
80.026	65593.48973
80.243	65577.42222
80.461	65467.48311
80.678	65451.48464
80.896	65510.95132
81.113	65540.72988
81.331	65572.83314
81.548	65367.06398
81.766	65506.37269
81.983	65529.27299
82.2	65579.71703
82.418	65634.8473
82.635	65499.50608
82.852	65403.54092
83.07	65549.89862
83.287	65561.36362
83.504	65526.98216
83.722	65453.7696
83.939	65543.02179
84.156	65446.91524
84.373	65600.37854
84.591	65559.07026
84.808	65545.31389
85.025	65506.37269
85.242	65579.71703
85.459	65538.43814
85.676	65549.89862
85.893	65616.45882
86.11	65531.56401
86.327	65533.85521
86.544	65545.31389
86.761	65575.12759
86.978	65506.37269
87.195	65540.72988
87.412	65650.94689
87.629	65595.78581
87.846	65556.77708
88.063	65472.05569
88.28	65549.89862
88.497	65559.07026
88.713	65588.8981
88.93	65614.16109
89.147	65575.12759
89.364	65515.53066
89.58	65543.02179
89.797	65515.53066
90.014	65545.31389
90.231	65492.64108
90.447	65570.53888
90.664	65515.53066
90.881	65524.6915
91.097	65478.91589
91.314	65485.77769
91.53	65563.65716
91.747	65533.85521
91.963	65598.08208
92.18	65549.89862
92.396	65549.89862
92.613	65536.14658
92.829	65634.8473
93.046	65618.75674
93.262	65609.56617
93.479	65517.8206
93.695	65524.6915
93.911	65559.07026
94.128	65609.56617
94.344	65472.05569
94.56	65510.95132
94.777	65657.84949
94.993	65588.8981
95.209	65483.49024
95.426	65330.63124
95.642	65611.86354
95.858	65572.83314
96.074	65556.77708
96.29	65623.35312
96.506	65552.19126
96.723	65533.85521
96.939	65604.97199
97.155	65593.48973
97.371	65543.02179
97.587	65575.12759
97.803	65577.42222
98.019	65568.24479
98.235	65510.95132
98.451	65600.37854
98.667	65453.7696
98.883	65591.19382
99.099	65623.35312
99.315	65595.78581
99.53	65536.14658
99.746	65568.24479
99.962	65602.67517
100.178	65559.07026
100.394	65561.36362
100.61	65627.95024
100.825	65513.2409
101.041	65591.19382
101.257	65538.43814
101.473	65543.02179
101.688	65524.6915
101.904	65582.01203
102.12	65549.89862
102.335	65536.14658
102.551	65582.01203
102.766	65490.35311
102.982	65568.24479
103.198	65588.8981
103.413	65547.60617
103.629	65579.71703
103.844	65572.83314
104.06	65561.36362
104.275	65508.66191
104.49	65526.98216
104.706	65600.37854
104.921	64964.15141
105.137	65547.60617
105.352	65481.20298
105.567	65561.36362
105.783	65538.43814
105.998	65531.56401
106.213	65513.2409
106.429	65598.08208
106.644	65582.01203
106.859	65540.72988
107.074	65414.94909
107.29	65600.37854
107.505	65565.95089
107.72	65494.92924
107.935	65499.50608
108.15	65531.56401
108.365	65611.86354
108.58	65508.66191
108.795	65501.79477
109.01	65508.66191
109.226	65632.5481
109.441	65394.41752
109.656	65611.86354
109.871	65444.6308
110.085	65513.2409
110.3	65543.02179
110.515	65621.05484
110.73	65458.34006
110.945	65570.53888
111.16	65513.2409
111.375	65517.8206
111.59	65565.95089
111.804	65536.14658
112.019	65538.43814
112.234	65575.12759
112.449	65513.2409
112.663	65552.19126
112.878	65575.12759
113.093	65554.48408
113.308	65467.48311
113.522	65552.19126
113.737	65673.96204
113.951	65522.40102
114.166	65554.48408
114.381	65543.02179
114.595	65565.95089
114.81	65536.14658
115.024	65549.89862
115.239	65522.40102
115.453	65584.3072
115.668	65568.24479
115.882	65515.53066
116.097	65568.24479
116.311	65650.94689
116.525	65543.02179
116.74	65657.84949
116.954	65506.37269
117.169	65554.48408
117.383	65536.14658
117.597	65492.64108
117.811	65552.19126
118.026	65467.48311
118.24	65504.08364
118.454	65556.77708
118.668	65559.07026
118.883	65559.07026
119.097	65540.72988
119.311	65540.72988
119.525	65543.02179
119.739	65547.60617
119.953	65568.24479
120.167	65426.36163
120.381	65577.42222
120.595	65543.02179
120.809	65584.3072
121.023	65529.27299
121.237	65568.24479
121.451	65577.42222
121.665	65572.83314
121.879	65540.72988
122.093	65476.62898
122.307	65648.6464
122.521	65588.8981
122.735	65476.62898
122.949	65572.83314
123.163	65627.95024
123.376	65510.95132
123.59	65490.35311
123.804	65547.60617
124.018	65584.3072
124.231	65595.78581
124.445	65618.75674
124.659	65474.34224
124.872	65456.05475
125.086	65552.19126
125.3	65547.60617
125.513	65529.27299
125.727	65584.3072
125.94	65531.56401
126.154	65552.19126
126.368	65600.37854
126.581	65575.12759
126.795	65584.3072
127.008	65579.71703
127.222	65611.86354
127.435	65600.37854
127.648	65598.08208
127.862	65526.98216
128.075	65591.19382
128.289	65508.66191
128.502	65602.67517
128.715	65538.43814
128.929	65653.24758
129.142	65579.71703
129.355	65549.89862
129.568	65488.06531
129.782	65526.98216
129.995	65472.05569
130.208	65572.83314
130.421	65593.48973
130.634	65586.60256
130.848	65508.66191
131.061	65472.05569
131.274	65513.2409
131.487	65611.86354
131.7	65584.3072
131.913	65510.95132
132.126	65556.77708
132.339	65460.62556
132.552	65371.62117
132.765	65478.91589
132.978	65556.77708
133.191	65579.71703
133.404	65515.53066
133.617	65575.12759
133.83	65526.98216
134.043	65604.97199
134.255	65630.24908
134.468	65529.27299
134.681	65625.65159
134.894	65667.05555
135.107	65595.78581
135.319	65517.8206
135.532	65545.31389
135.745	65510.95132
135.958	65563.65716
136.17	65637.14669
136.383	65540.72988
136.596	65588.8981
136.808	65561.36362
137.021	65499.50608
137.233	65591.19382
137.446	65533.85521
137.659	65572.83314
137.871	65424.07877
138.084	65563.65716
138.296	65524.6915
138.509	65559.07026
138.721	65593.48973
138.934	65540.72988
139.146	65526.98216
139.358	65586.60256
139.571	65465.19708
139.783	65469.76931
139.996	65545.31389
140.208	65490.35311
140.42	65497.21757
140.632	65524.6915
140.845	65577.42222
141.057	65637.14669
141.269	65584.3072
141.481	65559.07026
141.694	65604.97199
141.906	65538.43814
142.118	65655.54844
142.33	65531.56401
142.542	65611.86354
142.754	65520.11072
142.967	65644.04596
143.179	65598.08208
143.391	65485.77769
143.603	65577.42222
143.815	65474.34224
144.027	65554.48408
144.239	65446.91524
144.451	65545.31389
144.663	65556.77708
144.875	65481.20298
145.086	65449.19985
145.298	65501.79477
145.51	65579.71703
145.722	65483.49024
145.934	65572.83314
146.146	65577.42222
146.358	65561.36362
146.569	65611.86354
146.781	65526.98216
146.993	65609.56617
147.205	65462.91123
147.416	65563.65716
147.628	65554.48408
147.84	65513.2409
148.051	65561.36362
148.263	65526.98216
148.475	65600.37854
148.686	65565.95089
148.898	65490.35311
149.109	65474.34224
149.321	65602.67517
149.532	65481.20298
149.744	65538.43814
149.955	65515.53066
150.167	65570.53888
150.378	65556.77708
150.59	65586.60256
150.801	65625.65159
151.013	65611.86354
151.224	65474.34224
151.435	65561.36362
151.647	65474.34224
151.858	65529.27299
152.069	65561.36362
152.281	65563.65716
152.492	65533.85521
152.703	65568.24479
152.914	65433.21125
153.126	65529.27299
153.337	65533.85521
153.548	65630.24908
153.759	65524.6915
153.97	65609.56617
154.181	65593.48973
154.392	65504.08364
154.604	65621.05484
154.815	65584.3072
155.026	65517.8206
155.237	65561.36362
155.448	65453.7696
155.659	65536.14658
155.87	65543.02179
156.081	65522.40102
156.292	65591.19382
156.502	65623.35312
156.713	65520.11072
156.924	65497.21757
157.135	65540.72988
157.346	65556.77708
157.557	65520.11072
157.768	65586.60256
157.978	65627.95024
158.189	65531.56401
158.4	65593.48973
158.611	65531.56401
158.821	65481.20298
159.032	65570.53888
159.243	65501.79477
159.453	65549.89862
159.664	65549.89862
159.875	65510.95132
160.085	65586.60256
160.296	65510.95132
160.507	65570.53888
160.717	65595.78581
160.928	65508.66191
161.138	65713.13055
161.349	65568.24479
161.559	65634.8473
161.77	65565.95089
161.98	65588.8981
162.19	65515.53066
162.401	65570.53888
162.611	65504.08364
162.822	65577.42222
163.032	65570.53888
163.242	65584.3072
163.453	65504.08364
163.663	65607.26899
163.873	65531.56401
164.084	65593.48973
164.294	65604.97199
164.504	65554.48408
164.714	65536.14658
164.924	65538.43814
165.135	65588.8981
165.345	65508.66191
165.555	65547.60617
165.765	65494.92924
165.975	65504.08364
166.185	65552.19126
166.395	65579.71703
166.605	65621.05484
166.815	65609.56617
167.025	65568.24479
167.235	65469.76931
167.445	65667.05555
167.655	65531.56401
167.865	65561.36362
168.075	65545.31389
168.285	65561.36362
168.495	65543.02179
168.705	65478.91589
168.915	65453.7696
169.124	65517.8206
169.334	65520.11072
169.544	65524.6915
169.754	65561.36362
169.964	65515.53066
170.173	65490.35311
170.383	65536.14658
170.593	65543.02179
170.802	65499.50608
171.012	65602.67517
171.222	65565.95089
171.431	65607.26899
171.641	65572.83314
171.851	65627.95024
172.06	65586.60256
172.27	65588.8981
172.479	65522.40102
172.689	65584.3072
172.898	65531.56401
173.108	65575.12759
173.317	65508.66191
173.527	65614.16109
173.736	65618.75674
173.945	65545.31389
174.155	65506.37269
174.364	65508.66191
174.574	65545.31389
174.783	65556.77708
174.992	65494.92924
175.202	65554.48408
175.411	65497.21757
175.62	65584.3072
175.829	65598.08208
176.039	65533.85521
176.248	65504.08364
176.457	65556.77708
176.666	65472.05569
176.875	65588.8981
177.084	65517.8206
177.294	65595.78581
177.503	65609.56617
177.712	65467.48311
177.921	65591.19382
178.13	65559.07026
178.339	65646.34609
178.548	65579.71703
178.757	65547.60617
178.966	65508.66191
179.175	65522.40102
179.384	65565.95089
179.593	65543.02179
179.802	65621.05484
180.011	65547.60617
180.219	65568.24479
180.428	65538.43814
180.637	65538.43814
180.846	65508.66191
181.055	65540.72988
181.263	65565.95089
181.472	65462.91123
181.681	65595.78581
181.89	65531.56401
182.098	65465.19708
182.307	65572.83314
182.516	65533.85521
182.724	65549.89862
182.933	65513.2409
183.142	65637.14669
183.35	65533.85521
183.559	65540.72988
183.767	65556.77708
183.976	65586.60256
184.184	65600.37854
184.393	65526.98216
184.601	65586.60256
184.81	65467.48311
185.018	65591.19382
185.227	65529.27299
185.435	65609.56617
185.644	65513.2409
185.852	65655.54844
186.06	65510.95132
186.269	65510.95132
186.477	65506.37269
186.685	65554.48408
186.894	65465.19708
187.102	65549.89862
187.31	65481.20298
187.518	65554.48408
187.727	65639.44626
187.935	65616.45882
188.143	65556.77708
188.351	65524.6915
188.559	65616.45882
188.768	65478.91589
188.976	65499.50608
189.184	65515.53066
189.392	65513.2409
189.6	65522.40102
189.808	65442.34654
190.016	65584.3072
190.224	65572.83314
190.432	65543.02179
190.64	65547.60617
190.848	65538.43814
191.056	65490.35311
191.264	65529.27299
191.472	65554.48408
191.679	65570.53888
191.887	65563.65716
192.095	65646.34609
192.303	65526.98216
192.511	65577.42222
192.719	65653.24758
192.926	65497.21757
193.134	65653.24758
193.342	65582.01203
193.55	65561.36362
193.757	65554.48408
193.965	65531.56401
194.173	65515.53066
194.38	65621.05484
194.588	65595.78581
194.796	65575.12759
195.003	65499.50608
195.211	65595.78581
195.418	65577.42222
195.626	65644.04596
195.833	65538.43814
196.041	65494.92924
196.248	65554.48408
196.456	65497.21757
196.663	65453.7696
196.871	65584.3072
197.078	65536.14658
197.285	65561.36362
197.493	65536.14658
197.7	65417.23125
197.908	65529.27299
198.115	65570.53888
198.322	65540.72988
198.529	65611.86354
198.737	65630.24908
198.944	65536.14658
199.151	65627.95024
199.358	65593.48973
199.566	65671.65969
199.773	65462.91123
199.98	65559.07026
200.187	65588.8981
200.394	65552.19126
200.601	65430.92787
200.809	65641.74602
201.016	65529.27299
201.223	65522.40102
201.43	65637.14669
201.637	65579.71703
201.844	65584.3072
202.051	65657.84949
202.258	65533.85521
202.465	65575.12759
202.672	65646.34609
202.878	65552.19126
203.085	65579.71703
203.292	65533.85521
203.499	65504.08364
203.706	65552.19126
203.913	65549.89862
204.12	65611.86354
204.326	65593.48973
204.533	65604.97199
204.74	65494.92924
204.947	65543.02179
205.153	65554.48408
205.36	65538.43814
205.567	65644.04596
205.773	65637.14669
205.98	65515.53066
206.187	65559.07026
206.393	65549.89862
206.6	65572.83314
206.806	65614.16109
207.013	65488.06531
207.22	65494.92924
207.426	65604.97199
207.633	65545.31389
207.839	65478.91589
208.046	65510.95132
208.252	65513.2409
208.458	65508.66191
208.665	65536.14658
208.871	65575.12759
209.078	65467.48311
209.284	65559.07026
209.49	65570.53888
209.697	65572.83314
209.903	65611.86354
210.109	65577.42222
210.316	65510.95132
210.522	65591.19382
210.728	65529.27299
210.934	65332.907
211.14	65572.83314
211.347	65632.5481
211.553	65517.8206
211.759	65540.72988
211.965	65494.92924
212.171	65517.8206
212.377	65483.49024
212.583	65545.31389
212.789	65582.01203
212.996	65531.56401
213.202	65497.21757
213.408	65538.43814
213.614	65545.31389
213.82	65593.48973
214.025	65577.42222
214.231	65623.35312
214.437	65582.01203
214.643	65478.91589
214.849	65543.02179
215.055	65549.89862
215.261	65607.26899
215.467	65540.72988
215.672	65621.05484
215.878	65481.20298
216.084	65600.37854
216.29	65540.72988
216.496	65465.19708
216.701	65508.66191
216.907	65602.67517
217.113	65543.02179
217.318	65474.34224
217.524	65586.60256
217.73	65598.08208
217.935	65565.95089
218.141	65513.2409
218.346	65531.56401
218.552	65563.65716
218.758	65531.56401
218.963	65520.11072
219.169	65529.27299
219.374	65540.72988
219.58	65540.72988
219.785	65561.36362
219.991	65488.06531
220.196	65641.74602
220.401	65575.12759
220.607	65545.31389
220.812	65460.62556
221.017	65549.89862
221.223	65497.21757
221.428	65472.05569
221.633	65492.64108
221.839	65540.72988
222.044	65600.37854
222.249	65531.56401
222.454	65524.6915
222.66	65526.98216
222.865	65572.83314
223.07	65426.36163
223.275	65547.60617
223.48	65515.53066
223.686	65600.37854
223.891	65630.24908
224.096	65623.35312
224.301	65440.06245
224.506	65595.78581
224.711	65501.79477
224.916	65582.01203
225.121	65575.12759
225.326	65572.83314
225.531	65600.37854
225.736	65579.71703
225.941	65609.56617
226.146	65559.07026
226.351	65529.27299
226.555	65526.98216
226.76	65522.40102
226.965	65625.65159
227.17	65568.24479
227.375	65591.19382
227.58	65575.12759
227.784	65506.37269
227.989	65664.75376
228.194	65586.60256
228.399	65515.53066
228.603	65607.26899
228.808	65582.01203
229.013	65492.64108
229.217	65545.31389
229.422	65598.08208
229.627	65559.07026
229.831	65579.71703
230.036	65510.95132
230.24	65538.43814
230.445	65515.53066
230.649	65538.43814
230.854	65529.27299
231.058	65568.24479
231.263	65556.77708
231.467	65524.6915
231.672	65563.65716
231.876	65545.31389
232.081	65494.92924
232.285	65517.8206
232.489	65515.53066
232.694	65584.3072
232.898	65494.92924
233.102	65451.48464
233.307	65538.43814
233.511	65561.36362
233.715	65513.2409
233.919	65490.35311
234.124	65604.97199
234.328	65644.04596
234.532	65540.72988
234.736	65501.79477
234.94	65595.78581
235.145	65536.14658
235.349	65524.6915
235.553	65430.92787
235.757	65440.06245
235.961	65598.08208
236.165	65591.19382
236.369	65506.37269
236.573	65508.66191
236.777	65604.97199
236.981	65531.56401
237.185	65467.48311
237.389	65565.95089
237.593	65545.31389
237.797	65515.53066
238.001	65510.95132
238.205	65526.98216
238.409	65582.01203
238.612	65586.60256
238.816	65424.07877
239.02	65549.89862
239.224	65563.65716
239.428	65513.2409
239.631	65536.14658
239.835	65520.11072
240.039	65549.89862
240.243	65499.50608
240.446	65474.34224
240.65	65600.37854
240.854	65699.3002
241.057	65524.6915
241.261	65600.37854
241.464	65621.05484
241.668	65497.21757
241.872	65586.60256
242.075	65547.60617
242.279	65536.14658
242.482	65584.3072
242.686	65575.12759
242.889	65483.49024
243.093	65586.60256
243.296	65490.35311
243.499	65547.60617
243.703	65549.89862
243.906	65609.56617
244.11	65520.11072
244.313	65554.48408
244.516	65529.27299
244.72	65490.35311
244.923	65611.86354
245.126	65456.05475
245.33	65526.98216
245.533	65602.67517
245.736	65529.27299
245.939	65565.95089
246.142	65533.85521
246.346	65582.01203
246.549	65627.95024
246.752	65586.60256
246.955	65563.65716
247.158	65522.40102
247.361	65568.24479
247.564	65508.66191
247.767	65467.48311
247.971	65549.89862
248.174	65517.8206
248.377	65568.24479
248.58	65627.95024
248.783	65593.48973
248.985	65554.48408
249.188	65568.24479
249.391	65520.11072
249.594	65549.89862
249.797	65598.08208
250	65469.76931
250.203	65565.95089
250.406	65572.83314
250.609	65600.37854
250.811	65577.42222
251.014	65577.42222
251.217	65609.56617
251.42	65593.48973
251.622	65426.36163
251.825	65490.35311
252.028	65577.42222
252.231	65582.01203
252.433	65595.78581
252.636	65488.06531
252.838	65515.53066
253.041	65552.19126
253.244	65501.79477
253.446	65451.48464
253.649	65538.43814
253.851	65494.92924
254.054	65572.83314
254.256	65485.77769
254.459	65577.42222
254.661	65520.11072
254.864	65598.08208
255.066	65394.41752
255.269	65556.77708
255.471	65522.40102
255.673	65506.37269
255.876	65577.42222
256.078	65522.40102
256.281	65533.85521
256.483	65549.89862
256.685	65604.97199
256.887	65540.72988
257.09	65531.56401
257.292	65595.78581
257.494	65506.37269
257.696	65565.95089
257.899	65595.78581
258.101	65453.7696
258.303	65526.98216
258.505	65625.65159
258.707	65559.07026
258.909	65586.60256
259.111	65646.34609
259.314	65526.98216
259.516	65577.42222
259.718	65490.35311
259.92	65536.14658
260.122	65563.65716
260.324	65577.42222
260.526	65469.76931
260.728	65533.85521
260.93	65515.53066
261.131	65632.5481
261.333	65591.19382
261.535	65554.48408
261.737	65582.01203
261.939	65508.66191
262.141	65545.31389
262.343	65501.79477
262.544	65520.11072
262.746	65520.11072
262.948	65602.67517
263.15	65552.19126
263.352	65481.20298
263.553	65549.89862
263.755	65602.67517
263.957	65476.62898
264.158	65513.2409
264.36	65536.14658
264.562	65499.50608
264.763	65586.60256
264.965	65517.8206
265.166	65570.53888
265.368	65474.34224
265.569	65579.71703
265.771	65575.12759
265.972	65510.95132
266.174	65579.71703
266.375	65565.95089
266.577	65552.19126
266.778	65520.11072
266.98	65549.89862
267.181	65600.37854
267.383	65621.05484
267.584	65472.05569
267.785	65556.77708
267.987	65577.42222
268.188	65625.65159
268.389	65510.95132
268.591	65621.05484
268.792	65618.75674
268.993	65522.40102
269.194	65577.42222
269.396	65485.77769
269.597	65538.43814
269.798	65588.8981
269.999	65536.14658
270.2	65618.75674
270.401	65481.20298
270.603	65579.71703
270.804	65595.78581
271.005	65598.08208
271.206	65549.89862
271.407	65522.40102
271.608	65476.62898
271.809	65554.48408
272.01	65540.72988
272.211	65568.24479
272.412	65506.37269
272.613	65499.50608
272.814	65602.67517
273.015	65575.12759
273.216	65595.78581
273.416	65570.53888
273.617	65494.92924
273.818	65520.11072
274.019	65563.65716
274.22	65504.08364
274.421	65533.85521
274.621	65570.53888
274.822	65536.14658
275.023	65540.72988
275.224	65547.60617
275.424	65630.24908
275.625	65662.45215
275.826	65556.77708
276.026	65600.37854
276.227	65563.65716
276.428	65515.53066
276.628	65508.66191
276.829	65510.95132
277.029	65563.65716
277.23	65540.72988
277.43	65517.8206
277.631	65474.34224
277.831	65632.5481
278.032	65609.56617
278.232	65563.65716
278.433	65579.71703
278.633	65472.05569
278.834	65582.01203
279.034	65510.95132
279.234	65481.20298
279.435	65552.19126
279.635	65531.56401
279.835	65559.07026
280.036	65469.76931
280.236	65644.04596
280.436	65579.71703
280.637	65552.19126
280.837	65485.77769
281.037	65556.77708
281.237	65556.77708
281.438	65570.53888
281.638	65579.71703
281.838	65575.12759
282.038	65575.12759
282.238	65552.19126
282.438	65561.36362
282.638	65559.07026
282.838	65577.42222
283.038	65531.56401
283.239	65572.83314
283.439	65554.48408
283.639	65458.34006
283.839	65588.8981
284.039	65529.27299
284.238	65554.48408
284.438	65510.95132
284.638	65604.97199
284.838	65582.01203
285.038	65584.3072
285.238	65607.26899
285.438	65547.60617
285.638	65545.31389
285.838	65549.89862
286.037	65515.53066
286.237	65588.8981
286.437	65595.78581
286.637	65572.83314
286.836	65570.53888
287.036	65621.05484
287.236	65517.8206
287.436	65604.97199
287.635	65540.72988
287.835	65549.89862
288.034	65554.48408
288.234	65460.62556
288.434	65526.98216
288.633	65563.65716
288.833	65598.08208
289.032	65653.24758
289.232	65540.72988
289.431	65540.72988
289.631	65577.42222
289.83	65472.05569
290.03	65600.37854
290.229	65588.8981
290.429	65660.15073
290.628	65490.35311
290.828	65623.35312
291.027	65646.34609
291.226	65572.83314
291.426	65533.85521
291.625	65417.23125
291.824	65568.24479
292.024	65568.24479
292.223	65600.37854
292.422	65559.07026
292.621	65577.42222
292.821	65524.6915
293.02	65563.65716
293.219	65492.64108
293.418	65598.08208
293.617	65504.08364
293.817	65591.19382
294.016	65462.91123
294.215	65494.92924
294.414	65637.14669
294.613	65572.83314
294.812	65559.07026
295.011	65586.60256
295.21	65536.14658
295.409	65625.65159
295.608	65671.65969
295.807	65591.19382
296.006	65526.98216
296.205	65561.36362
296.404	65426.36163
296.603	65579.71703
296.802	65465.19708
297.001	65588.8981
297.2	65586.60256
297.398	65604.97199
297.597	65492.64108
297.796	65630.24908
297.995	65614.16109
298.194	65510.95132
298.392	65575.12759
298.591	65568.24479
298.79	65611.86354
298.988	65579.71703
299.187	65575.12759
299.386	65545.31389
299.585	65563.65716
299.783	65547.60617
299.982	65483.49024
300.18	65582.01203
300.379	65570.53888
300.578	65572.83314
300.776	65630.24908
300.975	65536.14658
301.173	65478.91589
301.372	65563.65716
301.57	65582.01203
301.769	65586.60256
301.967	65515.53066
302.166	65563.65716
302.364	65607.26899
302.562	65559.07026
302.761	65513.2409
302.959	65568.24479
303.157	65522.40102
303.356	65595.78581
303.554	65504.08364
303.752	65563.65716
303.951	65529.27299
304.149	65442.34654
304.347	65536.14658
304.546	65506.37269
304.744	65543.02179
304.942	65526.98216
305.14	65595.78581
305.338	65621.05484
305.536	65572.83314
305.735	65575.12759
305.933	65582.01203
306.131	65591.19382
306.329	65504.08364
306.527	65621.05484
306.725	65568.24479
306.923	65515.53066
307.121	65458.34006
307.319	65593.48973
307.517	65595.78581
307.715	65545.31389
307.913	65435.49481
308.111	65522.40102
308.309	65538.43814
308.507	65570.53888
308.705	65559.07026
308.903	65614.16109
309.1	65494.92924
309.298	65499.50608
309.496	65540.72988
309.694	65577.42222
309.892	65602.67517
310.089	65609.56617
310.287	65559.07026
310.485	65588.8981
310.683	65545.31389
310.88	65563.65716
311.078	65570.53888
311.276	65506.37269
311.473	65556.77708
311.671	65547.60617
311.869	65504.08364
312.066	65554.48408
312.264	65552.19126
312.461	65474.34224
312.659	65494.92924
312.856	65506.37269
313.054	65584.3072
313.251	65579.71703
313.449	65492.64108
313.646	65561.36362
313.844	65604.97199
314.041	65561.36362
314.239	65490.35311
314.436	65481.20298
314.634	65449.19985
314.831	65506.37269
315.028	65627.95024
315.226	65561.36362
315.423	65490.35311
315.62	65595.78581
315.817	65543.02179
316.015	65435.49481
316.212	65591.19382
316.409	65510.95132
316.606	65526.98216
316.804	65572.83314
317.001	65607.26899
317.198	65508.66191
317.395	65508.66191
317.592	65508.66191
317.789	65559.07026
317.987	65536.14658
318.184	65588.8981
318.381	65625.65159
318.578	65510.95132
318.775	65621.05484
318.972	65616.45882
319.169	65614.16109
319.366	65506.37269
319.563	65543.02179
319.76	65582.01203
319.957	65572.83314
320.154	65586.60256
320.351	65504.08364
320.547	65526.98216
320.744	65565.95089
320.941	65444.6308
321.138	65559.07026
321.335	65545.31389
321.532	65593.48973
321.728	65513.2409
321.925	65611.86354
322.122	65433.21125
322.319	65660.15073
322.515	65504.08364
322.712	65517.8206
322.909	65630.24908
323.105	65634.8473
323.302	65494.92924
323.499	65474.34224
323.695	65522.40102
323.892	65552.19126
324.089	65508.66191
324.285	65575.12759
324.482	65584.3072
324.678	65634.8473
324.875	65588.8981
325.071	65538.43814
325.268	65543.02179
325.464	65568.24479
325.661	65547.60617
325.857	65561.36362
326.054	65595.78581
326.25	65522.40102
326.446	65520.11072
326.643	65540.72988
326.839	65563.65716
327.035	65644.04596
327.232	65494.92924
327.428	65639.44626
327.624	65632.5481
327.821	65549.89862
328.017	65609.56617
328.213	65586.60256
328.409	65549.89862
328.606	65529.27299
328.802	65531.56401
328.998	65565.95089
329.194	65627.95024
329.39	65506.37269
329.586	65549.89862
329.783	65510.95132
329.979	65538.43814
330.175	65568.24479
330.371	65549.89862
330.567	65565.95089
330.763	65538.43814
330.959	65602.67517
331.155	65575.12759
331.351	65584.3072
331.547	65520.11072
331.743	65660.15073
331.939	65556.77708
332.135	65584.3072
332.33	65483.49024
332.526	65547.60617
332.722	65531.56401
332.918	65499.50608
333.114	65602.67517
333.31	65446.91524
333.506	65474.34224
333.701	65552.19126
333.897	65662.45215
334.093	65508.66191
334.289	65614.16109
334.484	65449.19985
334.68	65465.19708
334.876	65492.64108
335.071	65559.07026
335.267	65488.06531
335.463	65570.53888
335.658	65568.24479
335.854	65678.5673
336.049	65554.48408
336.245	65584.3072
336.441	65579.71703
336.636	65531.56401
336.832	65513.2409
337.027	65430.92787
337.223	65618.75674
337.418	65476.62898
337.613	65609.56617
337.809	65526.98216
338.004	65602.67517
338.2	65545.31389
338.395	65595.78581
338.591	65501.79477
338.786	65609.56617
338.981	65604.97199
339.177	65614.16109
339.372	65540.72988
339.567	65481.20298
339.762	65513.2409
339.958	65680.87021
340.153	65639.44626
340.348	65011.41856
340.543	65561.36362
340.739	65604.97199
340.934	65575.12759
341.129	65522.40102
341.324	65522.40102
341.519	65630.24908
341.714	65694.69158
341.909	65609.56617
342.104	65549.89862
342.299	65559.07026
342.495	65582.01203
342.69	65600.37854
342.885	65586.60256
343.08	65301.06192
343.275	65467.48311
343.469	65570.53888
343.664	65515.53066
343.859	65559.07026
344.054	65621.05484
344.249	65602.67517
344.444	65547.60617
344.639	65582.01203
344.834	65607.26899
345.029	65554.48408
345.223	65529.27299
345.418	65609.56617
345.613	65540.72988
345.808	65559.07026
346.003	65563.65716
346.197	65559.07026
346.392	65543.02179
346.587	65446.91524
346.781	65572.83314
346.976	65531.56401
347.171	65476.62898
347.365	65582.01203
347.56	65579.71703
347.755	65501.79477
347.949	65577.42222
348.144	65607.26899
348.338	65545.31389
348.533	65540.72988
348.727	65591.19382
348.922	65508.66191
349.116	65623.35312
349.311	65552.19126
349.505	65623.35312
349.7	65607.26899
349.894	65595.78581
350.089	65531.56401
350.283	65565.95089
350.477	65549.89862
350.672	65568.24479
350.866	65490.35311
351.06	65545.31389
351.255	65549.89862
351.449	65554.48408
351.643	65554.48408
351.837	65510.95132
352.032	65650.94689
352.226	65600.37854
352.42	65604.97199
352.614	65488.06531
352.809	65591.19382
353.003	65547.60617
353.197	65533.85521
353.391	65570.53888
353.585	65536.14658
353.779	65632.5481
353.973	65488.06531
354.167	65524.6915
354.361	65611.86354
354.555	65499.50608
354.749	65568.24479
354.943	65591.19382
355.137	65526.98216
355.331	65575.12759
355.525	65588.8981
355.719	65526.98216
355.913	65565.95089
356.107	65538.43814
356.301	65568.24479
356.495	65563.65716
356.689	65554.48408
356.883	65526.98216
357.076	65623.35312
357.27	65492.64108
357.464	65588.8981
357.658	65490.35311
357.852	65561.36362
358.045	65529.27299
358.239	65602.67517
358.433	65577.42222
358.626	65588.8981
358.82	65561.36362
359.014	65540.72988
359.207	65549.89862
359.401	65641.74602
359.595	65529.27299
359.788	65582.01203
359.982	65554.48408
360.175	65520.11072
360.369	65577.42222
360.563	65549.89862
360.756	65561.36362
360.95	65538.43814
361.143	65648.6464
361.336	65699.3002
361.53	65604.97199
361.723	65591.19382
361.917	65533.85521
362.11	65593.48973
362.304	65568.24479
362.497	65559.07026
362.69	65433.21125
362.884	65543.02179
363.077	65582.01203
363.27	65575.12759
363.464	65549.89862
363.657	65591.19382
363.85	65508.66191
364.043	65577.42222
364.237	65549.89862
364.43	65522.40102
364.623	65517.8206
364.816	65607.26899
365.009	65497.21757
365.202	65582.01203
365.396	65481.20298
365.589	65543.02179
365.782	65543.02179
365.975	65623.35312
366.168	65513.2409
366.361	65476.62898
366.554	65559.07026
366.747	65591.19382
366.94	65524.6915
367.133	65563.65716
367.326	65575.12759
367.519	65577.42222
367.712	65685.47659
367.905	65572.83314
368.098	65598.08208
368.291	65456.05475
368.484	65559.07026
368.676	65529.27299
368.869	65630.24908
369.062	65570.53888
369.255	65554.48408
369.448	65517.8206
369.64	65543.02179
369.833	65582.01203
370.026	65508.66191
370.219	65625.65159
370.411	65453.7696
370.604	65639.44626
370.797	65543.02179
370.989	65515.53066
371.182	65632.5481
371.375	65504.08364
371.567	65533.85521
371.76	65565.95089
371.952	65634.8473
372.145	65538.43814
372.338	65531.56401
372.53	65540.72988
372.723	65618.75674
372.915	65565.95089
373.108	65593.48973
373.3	65526.98216
373.493	65520.11072
373.685	65517.8206
373.877	65611.86354
374.07	65501.79477
374.262	65492.64108
374.455	65602.67517
374.647	65660.15073
374.839	65494.92924
375.032	65549.89862
375.224	65549.89862
375.416	65609.56617
375.609	65112.94123
375.801	65556.77708
375.993	65602.67517
376.185	65614.16109
376.378	65565.95089
376.57	65545.31389
376.762	65540.72988
376.954	65526.98216
377.146	65513.2409
377.338	65604.97199
377.53	65595.78581
377.723	65510.95132
377.915	65600.37854
378.107	65559.07026
378.299	65591.19382
378.491	65586.60256
378.683	65540.72988
378.875	65582.01203
379.067	65492.64108
379.259	65520.11072
379.451	65568.24479
379.643	65504.08364
379.835	65533.85521
380.027	65488.06531
380.219	65600.37854
380.41	65554.48408
380.602	65547.60617
380.794	65646.34609
380.986	65591.19382
381.178	65561.36362
381.37	65568.24479
381.561	65552.19126
381.753	65469.76931
381.945	65483.49024
382.137	65549.89862
382.328	65579.71703
382.52	65591.19382
382.712	65584.3072
382.903	65488.06531
383.095	65570.53888
383.287	65616.45882
383.478	65529.27299
383.67	65588.8981
383.862	65547.60617
384.053	65540.72988
384.245	65586.60256
384.436	65517.8206
384.628	65545.31389
384.819	65572.83314
385.011	65513.2409
385.202	65565.95089
385.394	65586.60256
385.585	65460.62556
385.777	65582.01203
385.968	65623.35312
386.159	65559.07026
386.351	65552.19126
386.542	65524.6915
386.734	65476.62898
386.925	65577.42222
387.116	65536.14658
387.308	65540.72988
387.499	65602.67517
387.69	65517.8206
387.881	65476.62898
388.073	65552.19126
388.264	65549.89862
388.455	65637.14669
388.646	65504.08364
388.837	65522.40102
389.029	65545.31389
389.22	65570.53888
389.411	65591.19382
389.602	65547.60617
389.793	65582.01203
389.984	65561.36362
390.175	65531.56401
390.366	65517.8206
390.557	65614.16109
390.748	65554.48408
390.939	65630.24908
391.13	65577.42222
391.321	65540.72988
391.512	65572.83314
391.703	65559.07026
391.894	65586.60256
392.085	65609.56617
392.276	65600.37854
392.467	65614.16109
392.658	65595.78581
392.849	65549.89862
393.039	65579.71703
393.23	65563.65716
393.421	65538.43814
393.612	65554.48408
393.803	65561.36362
393.993	65460.62556
394.184	65524.6915
394.375	65611.86354
394.566	65549.89862
394.756	65538.43814
394.947	65501.79477
395.138	65584.3072
395.328	65488.06531
395.519	65508.66191
395.709	65614.16109
395.9	65456.05475
396.091	65584.3072
396.281	65586.60256
396.472	65579.71703
396.662	65604.97199
396.853	65595.78581
397.043	65577.42222
397.234	65582.01203
397.424	65536.14658
397.615	65536.14658
397.805	65545.31389
397.996	65634.8473
398.186	65499.50608
398.376	65481.20298
398.567	65593.48973
398.757	65563.65716
398.947	65694.69158
399.138	65510.95132
399.328	65499.50608
399.518	65616.45882
399.709	65646.34609
399.899	65559.07026
400.089	65595.78581
400.279	65549.89862
400.47	65556.77708
400.66	65554.48408
400.85	65483.49024
401.04	65520.11072
401.23	65494.92924
401.421	65533.85521
401.611	65577.42222
401.801	65517.8206
401.991	65549.89862
402.181	65568.24479
402.371	65536.14658
402.561	65488.06531
402.751	65570.53888
402.941	65522.40102
403.131	65481.20298
403.321	65591.19382
403.511	65540.72988
403.701	65510.95132
403.891	65549.89862
404.081	65547.60617
404.271	65598.08208
404.461	65478.91589
404.651	65607.26899
404.84	65529.27299
405.03	65520.11072
405.22	65595.78581
405.41	65584.3072
405.6	65497.21757
405.789	65501.79477
405.979	65485.77769
406.169	65625.65159
406.359	65559.07026
406.548	65609.56617
406.738	65609.56617
406.928	65483.49024
407.118	65517.8206
407.307	65504.08364
407.497	65552.19126
407.686	65494.92924
407.876	65602.67517
408.066	65582.01203
408.255	65591.19382
408.445	65584.3072
408.634	65510.95132
408.824	65531.56401
409.013	65575.12759
409.203	65497.21757
409.392	65531.56401
409.582	65536.14658
409.771	65630.24908
409.961	65588.8981
410.15	65517.8206
410.34	65529.27299
410.529	65604.97199
410.718	65545.31389
410.908	65417.23125
411.097	65604.97199
411.286	65588.8981
411.476	65618.75674
411.665	65579.71703
411.854	65570.53888
412.044	65614.16109
412.233	65529.27299
412.422	65529.27299
412.611	65547.60617
412.8	65506.37269
412.99	65593.48973
413.179	65513.2409
413.368	65586.60256
413.557	65611.86354
413.746	65563.65716
413.935	65586.60256
414.124	65632.5481
414.313	65497.21757
414.503	65531.56401
414.692	65588.8981
414.881	65476.62898
415.07	65492.64108
415.259	65565.95089
415.448	65490.35311
415.637	65547.60617
415.826	65529.27299
416.015	65621.05484
416.203	65565.95089
416.392	65515.53066
416.581	65577.42222
416.77	65536.14658
416.959	65524.6915
417.148	65584.3072
417.337	65595.78581
417.525	65540.72988
417.714	65522.40102
417.903	65600.37854
418.092	65595.78581
418.281	65529.27299
418.469	65538.43814
418.658	65543.02179
418.847	65572.83314
419.035	65607.26899
419.224	65621.05484
419.413	65598.08208
419.601	65540.72988
419.79	65630.24908
419.979	65565.95089
420.167	65600.37854
420.356	65563.65716
420.544	65526.98216
420.733	65595.78581
420.921	65575.12759
421.11	65526.98216
421.299	65513.2409
421.487	65556.77708
421.675	65552.19126
421.864	65561.36362
422.052	65579.71703
422.241	65460.62556
422.429	65572.83314
422.618	65563.65716
422.806	65540.72988
422.994	65572.83314
423.183	65517.8206
423.371	65572.83314
423.559	65531.56401
423.748	65504.08364
423.936	65577.42222
424.124	65662.45215
424.312	65598.08208
424.501	65540.72988
424.689	65563.65716
424.877	65561.36362
425.065	65559.07026
425.254	65577.42222
425.442	65414.94909
425.63	65483.49024
425.818	65474.34224
426.006	65563.65716
426.194	65469.76931
426.382	65488.06531
426.57	65520.11072
426.758	65536.14658
426.946	65572.83314
427.134	65510.95132
427.323	65588.8981
427.51	65559.07026
427.698	65545.31389
427.886	65515.53066
428.074	65478.91589
428.262	65660.15073
428.45	65549.89862
428.638	65543.02179
428.826	65517.8206
429.014	65591.19382
429.202	65664.75376
429.39	65627.95024
429.577	65488.06531
429.765	65490.35311
429.953	65485.77769
430.141	65561.36362
430.329	65517.8206
430.516	65586.60256
430.704	65426.36163
430.892	65575.12759
431.079	65648.6464
431.267	65490.35311
431.455	65625.65159
431.643	65478.91589
431.83	65526.98216
432.018	65515.53066
432.205	65575.12759
432.393	65623.35312
432.581	65559.07026
432.768	65490.35311
432.956	65494.92924
433.143	65536.14658
433.331	65508.66191
433.518	65575.12759
433.706	65556.77708
433.893	65449.19985
434.081	65582.01203
434.268	65465.19708
434.456	65598.08208
434.643	65586.60256
434.83	65499.50608
435.018	65499.50608
435.205	65582.01203
435.392	65582.01203
435.58	65655.54844
435.767	65497.21757
435.954	65552.19126
436.142	65490.35311
436.329	65591.19382
436.516	65572.83314
436.703	65515.53066
436.891	65476.62898
437.078	65501.79477
437.265	65497.21757
437.452	65506.37269
437.639	65540.72988
437.827	65522.40102
438.014	65504.08364
438.201	65556.77708
438.388	65499.50608
438.575	65549.89862
438.762	65552.19126
438.949	65565.95089
439.136	65510.95132
439.323	65458.34006
439.51	65559.07026
439.697	65481.20298
439.884	65485.77769
440.071	65510.95132
440.258	65483.49024
440.445	65494.92924
440.632	65301.06192
440.819	65504.08364
441.006	65433.21125
441.193	65517.8206
441.38	65481.20298
441.566	65543.02179
441.753	65552.19126
441.94	65485.77769
442.127	65549.89862
442.314	65469.76931
442.5	65446.91524
442.687	65462.91123
442.874	65490.35311
443.061	65497.21757
443.247	65481.20298
443.434	65392.1371
443.621	65559.07026
443.807	65504.08364
443.994	65380.73763
444.181	65517.8206
444.367	65547.60617
444.554	65462.91123
444.74	65488.06531
444.927	65517.8206
445.114	65460.62556
445.3	65335.18293
445.487	65412.66711
445.673	65428.64466
445.86	65458.34006
446.046	65483.49024
446.233	65446.91524
446.419	65478.91589
446.605	65373.90003
446.792	65378.45826
446.978	65517.8206
447.165	65453.7696
447.351	65478.91589
447.537	65492.64108
447.724	65501.79477
447.91	65387.57679
448.096	65412.66711
448.283	65348.84211
448.469	65451.48464
448.655	65435.49481
448.841	65383.01718
449.028	65421.79609
449.214	65408.10366
449.4	65385.2969
449.586	65405.8222
449.773	65378.45826
449.959	65405.8222
450.145	65291.96945
450.331	65421.79609
450.517	65451.48464
450.703	65330.63124
450.889	65424.07877
451.075	65369.34249
451.261	65294.24231
451.447	65287.42423
451.633	65367.06398
451.819	65355.67402
452.005	65285.15188
452.191	65353.39655
452.377	65335.18293
452.563	65312.43132
452.749	65316.98028
452.935	65291.96945
453.121	65253.35664
453.307	65282.87969
453.493	65226.12978
453.679	65266.97912
453.865	65237.47138
454.05	65210.25855
454.236	65255.62663
454.422	65321.52992
454.608	65278.33583
454.794	65298.78854
454.979	65307.88305
455.165	65276.06415
455.351	65217.05951
455.537	65221.59431
455.722	65146.8547
455.908	65228.39776
456.094	65164.95691
456.279	65144.59266
456.465	65110.68164
456.65	65205.72541
456.836	65174.01196
457.022	65162.69356
457.207	65178.54047
457.393	65131.02386
457.578	65183.06964
457.764	65085.83675
457.949	65158.16736
458.135	65097.12745
458.32	65232.93424
458.506	65185.33447
458.691	65149.11691
458.877	65128.76296
459.062	65194.39545
459.248	65201.19293
459.433	65076.80708
459.618	65054.24415
459.804	65151.37927
459.989	65058.75546
460.174	65054.24415
460.36	65081.32159
460.545	65094.86899
460.73	65110.68164
460.915	65099.38608
461.101	65108.4222
461.286	65076.80708
461.471	65094.86899
461.656	65207.99189
461.842	65054.24415
462.027	65083.57909
462.212	65054.24415
462.397	65036.20533
462.582	65067.77999
462.767	64966.40065
462.952	65162.69356
463.138	65047.4784
463.323	64970.89962
463.508	65067.77999
463.693	65027.18973
463.878	65058.75546
464.063	64968.65006
464.248	65004.66186
464.433	65004.66186
464.618	65004.66186
464.803	65000.15818
464.988	65002.40994
465.173	64934.92538
465.357	64975.39921
465.542	64979.89942
465.727	64883.28193
465.912	64932.67832
466.097	64988.90174
466.282	64988.90174
466.467	64932.67832
466.651	64887.76943
466.836	64887.76943
467.021	65045.22346
467.206	64939.41998
467.391	64997.90658
467.575	64959.65338
467.76	64950.6592
467.945	64865.33803
468.129	64896.74628
468.314	64858.61159
468.499	64975.39921
468.683	64847.4039
468.868	64928.18465
469.053	64916.95319
469.237	64901.23562
469.422	64847.4039
469.606	64903.48053
469.791	64966.40065
469.975	64885.5256
470.16	64912.46168
470.344	64876.55182
470.529	64948.41105
470.713	64780.23708
470.898	64941.66752
471.082	64903.48053
471.267	64950.6592
471.451	64934.92538
471.636	65051.98874
471.82	64941.66752
472.004	64811.56474
472.189	64930.4314
472.373	65004.66186
472.557	64986.65093
472.742	64973.14933
472.926	64982.14977
473.11	64993.40384
473.295	64898.99087
473.479	64907.9708
473.663	64916.95319
473.847	64979.89942
474.031	64970.89962
474.216	64966.40065
474.4	64991.15271
474.584	64984.40027
474.768	64946.16305
474.952	64881.0384
475.136	64878.79504
475.32	65011.41856
475.505	64898.99087
475.689	64845.16282
475.873	64919.19917
476.057	64910.21616
476.241	64957.4046
476.425	64883.28193
476.609	64847.4039
476.793	64923.6916
476.977	64993.40384
477.161	64887.76943
477.345	64869.82309
477.529	64986.65093
477.713	64831.7195
477.896	64968.65006
478.08	64813.80355
478.264	64881.0384
478.448	64905.72558
478.632	64836.2
478.816	65045.22346
478.999	64851.88652
479.183	64934.92538
479.367	64903.48053
479.551	64740.00162
479.735	64842.92189
479.918	64878.79504
480.102	64811.56474
480.286	64849.64513
480.469	64916.95319
480.653	64813.80355
480.837	64829.47948
481.02	64856.36975
481.204	64816.04252
481.388	64786.94768
481.571	64688.65925
481.755	64824.99989
481.938	64816.04252
482.122	64851.88652
482.305	64755.64302
482.489	64673.04868
482.673	64717.6693
482.856	64791.42216
483.04	64784.71066
483.223	64775.76409
483.406	64795.89723
483.59	64791.42216
483.773	64735.53397
483.957	64816.04252
484.14	64706.50866
484.323	64670.81918
484.507	64713.20461
484.69	64746.70419
484.874	64818.28164
485.057	64764.58423
485.24	64719.90187
485.423	64856.36975
485.607	64697.58279
485.79	64755.64302
485.973	64710.97248
486.156	64646.30424
486.34	64661.90263
486.523	64644.07648
486.706	64704.27697
486.889	64775.76409
487.072	64670.81918
487.256	64650.7602
487.439	64710.97248
487.622	64652.9884
487.805	64706.50866
487.988	64677.50811
488.171	64646.30424
488.354	64635.16687
488.537	64699.81404
488.72	64652.9884
488.903	64628.48617
489.086	64681.96813
489.269	64641.84886
489.452	64637.39405
489.635	64586.20503
489.818	64477.39969
490.001	64715.43688
490.184	64675.27832
490.367	64673.04868
490.55	64577.3103
490.732	64470.74901
490.915	64615.12866
491.098	64577.3103
491.281	64702.04543
491.464	64628.48617
491.647	64655.21674
491.829	64661.90263
492.012	64570.64074
492.195	64517.32993
492.378	64606.22651
492.56	64461.88338
492.743	64484.0516
492.926	64455.2356
493.108	64595.10204
493.291	64575.08697
493.474	64437.51424
493.656	64453.01995
493.839	64397.67314
494.022	64464.09958
494.204	64393.24906
494.387	64419.80163
494.569	64557.30543
494.752	64426.44284
494.934	64450.80444
495.117	64437.51424
495.299	64475.18266
495.482	64406.5229
495.664	64360.08574
495.847	64441.94376
496.029	64481.83416
496.212	64229.93383
496.394	64453.01995
496.576	64406.5229
496.759	64499.5776
496.941	64322.53712
497.123	64168.32581
497.306	64475.18266
497.488	64388.82553
497.67	64457.45139
497.853	64450.80444
498.035	64324.7448
498.217	64258.57204
498.4	64329.16055
498.582	64479.61685
498.764	64404.31026
498.946	64333.57683
499.128	64346.82888
499.311	64375.55819
499.493	64468.5324
499.675	64335.78517
499.857	64298.26145
500.039	64260.77589
500.221	64298.26145
500.403	64278.41142
500.585	64177.12078
500.767	64238.74324
500.949	64278.41142
501.132	64302.67401
501.314	64335.78517
501.496	64194.71689
501.678	64408.73569
501.859	64265.18398
502.041	64256.36831
502.223	64256.36831
502.405	64289.43789
502.587	64192.51693
502.769	64216.7236
502.951	64214.52235
503.133	64243.14873
503.315	64298.26145
503.497	64271.79711
503.678	64262.97987
503.86	64351.2473
504.042	64146.34729
504.224	64177.12078
504.406	64236.54069
504.587	64291.64358
504.769	64245.35167
504.951	64221.12649
505.132	64329.16055
505.314	64262.97987
505.496	64225.5299
505.678	64291.64358
505.859	64274.00175
506.041	64225.5299
506.222	64240.94592
506.404	64236.54069
506.586	64249.75793
506.767	64185.91781
506.949	64293.84941
507.13	64243.14873
507.312	64251.96126
507.493	64111.20805
507.675	64227.7318
507.856	64225.5299
508.038	64315.91489
508.219	64293.84941
508.401	64291.64358
508.582	64196.91698
508.764	64234.33827
508.945	64201.31755
509.126	64289.43789
509.308	64271.79711
509.489	64256.36831
509.671	64313.70775
509.852	64221.12649
510.033	64313.70775
510.214	64287.23234
510.396	64326.95261
510.577	64393.24906
510.758	64210.12023
510.94	64221.12649
511.121	64256.36831
511.302	64258.57204
511.483	64293.84941
511.664	64229.93383
511.846	64342.41099
512.027	64260.77589
512.208	64324.7448
512.389	64311.50074
512.57	64227.7318
512.751	64265.18398
512.932	64247.55473
513.113	64157.33496
513.294	64280.61645
513.476	64267.38823
513.657	64300.46766
513.838	64375.55819
514.019	64236.54069
514.2	64315.91489
514.381	64260.77589
514.561	64240.94592
514.742	64337.99364
514.923	64269.5926
515.104	64251.96126
515.285	64296.05536
515.466	64326.95261
515.647	64364.50577
515.828	64218.92498
516.009	64262.97987
516.189	64337.99364
516.37	64373.34743
516.551	64346.82888
516.732	64346.82888
516.913	64311.50074
517.093	64340.20225
517.274	64346.82888
517.455	64188.11739
517.636	64260.77589
517.816	64251.96126
517.997	64276.20652
518.178	64282.82161
518.358	64382.19125
518.539	64309.29386
518.72	64291.64358
518.9	64280.61645
519.081	64293.84941
519.261	64243.14873
519.442	64159.53287
519.622	64276.20652
519.803	64280.61645
519.984	64229.93383
520.164	64307.08711
520.345	64287.23234
520.525	64274.00175
520.705	64329.16055
520.886	64225.5299
521.066	64439.72893
521.247	64296.05536
521.427	64300.46766
521.608	64141.95311
521.788	64326.95261
521.968	64128.77362
522.149	64344.61987
522.329	64267.38823
522.509	64375.55819
522.69	64326.95261
522.87	64355.66625
523.05	64382.19125
523.231	64362.29569
523.411	64322.53712
523.591	64269.5926
523.771	64351.2473
523.951	64265.18398
524.132	64247.55473
524.312	64298.26145
524.492	64326.95261
524.672	64271.79711
524.852	64247.55473
525.032	64309.29386
525.213	64276.20652
525.393	64207.91937
525.573	64384.40254
525.753	64236.54069
525.933	64262.97987
526.113	64269.5926
526.293	64373.34743
526.473	64342.41099
526.653	64196.91698
526.833	64333.57683
527.013	64391.03723
527.193	64307.08711
527.373	64322.53712
527.553	64296.05536
527.733	64265.18398
527.913	64353.45671
528.092	64492.92277
528.272	64278.41142
528.452	64335.78517
528.632	64415.37485
528.812	64320.32958
528.992	64269.5926
529.171	64302.67401
529.351	64397.67314
529.531	64391.03723
529.711	64287.23234
529.89	64388.82553
530.07	64280.61645
530.25	64194.71689
530.43	64199.1172
530.609	64322.53712
530.789	64304.8805
530.969	64293.84941
531.148	64362.29569
531.328	64399.88537
531.507	64353.45671
531.687	64267.38823
531.867	64393.24906
532.046	64251.96126
532.226	64357.87593
532.405	64296.05536
532.585	64318.12217
532.764	64340.20225
532.944	64194.71689
533.123	64322.53712
533.303	64373.34743
533.482	64196.91698
533.662	64349.03802
533.841	64291.64358
534.021	64256.36831
534.2	64344.61987
534.379	64388.82553
534.559	64326.95261
534.738	64287.23234
534.917	64428.65684
535.097	64318.12217
535.276	64313.70775
535.455	64271.79711
535.635	64406.5229
535.814	64351.2473
535.993	64282.82161
536.172	64415.37485
536.352	64377.76907
536.531	64397.67314
536.71	64304.8805
536.889	64324.7448
537.068	64364.50577
537.248	64384.40254
537.427	64247.55473
537.606	64318.12217
537.785	64322.53712
537.964	64337.99364
538.143	64402.09775
538.322	64353.45671
538.501	64320.32958
538.68	64375.55819
538.859	64271.79711
539.038	64410.9486
539.217	64410.9486
539.396	64479.61685
539.575	64335.78517
539.754	64318.12217
539.933	64282.82161
540.112	64504.01484
540.291	64342.41099
540.47	64344.61987
540.649	64346.82888
540.828	64504.01484
541.007	64313.70775
541.186	64422.01523
541.364	64322.53712
541.543	64404.31026
541.722	64360.08574
541.901	64397.67314
542.08	64247.55473
542.258	64285.02691
542.437	64428.65684
542.616	64293.84941
542.795	64448.58906
542.973	64404.31026
543.152	64413.16166
543.331	64391.03723
543.509	64437.51424
543.688	64318.12217
543.867	64415.37485
544.045	64428.65684
544.224	64278.41142
544.402	64019.12004
544.581	64382.19125
544.76	64479.61685
544.938	64373.34743
545.117	64342.41099
545.295	64391.03723
545.474	64388.82553
545.652	64464.09958
545.831	64415.37485
546.009	64285.02691
546.188	64388.82553
546.366	64402.09775
546.544	64379.9801
546.723	64375.55819
546.901	64368.92633
547.08	64311.50074
547.258	64422.01523
547.436	64419.80163
547.615	64468.5324
547.793	64395.46103
547.971	64377.76907
548.15	64393.24906
548.328	64340.20225
548.506	64278.41142
548.684	64251.96126
548.863	64413.16166
549.041	64444.15872
549.219	64501.79615
549.397	64364.50577
549.576	64415.37485
549.754	64373.34743
549.932	64399.88537
550.11	64441.94376
550.288	64477.39969
550.466	64563.97245
550.644	64340.20225
550.822	64437.51424
551.001	64477.39969
551.179	64530.65005
551.357	64466.31592
551.535	64408.73569
551.713	64468.5324
551.891	64472.96577
552.069	64517.32993
552.247	64477.39969
552.425	64512.89101
552.603	64512.89101
552.781	64490.70477
552.958	64521.76941
553.136	64499.5776
553.314	64615.12866
553.492	64570.64074
553.67	64597.32665
553.848	64610.6773
554.026	64708.7405
554.204	64690.88992
554.381	64630.71293
554.559	64693.12073
554.737	64766.81991
554.915	64699.81404
555.092	64657.44522
555.27	64731.06692
555.448	64693.12073
555.626	64744.46985
555.803	64831.7195
555.981	64659.67385
556.159	64789.18484
556.336	64798.135
556.514	64860.85359
556.692	64816.04252
556.869	64789.18484
557.047	64784.71066
557.224	64816.04252
557.402	64831.7195
557.58	64755.64302
557.757	64869.82309
557.935	64968.65006
558.112	64874.30876
558.29	64863.09573
558.467	64968.65006
558.645	64970.89962
558.822	64984.40027
559	64957.4046
559.177	64932.67832
559.354	64907.9708
559.532	64914.70736
559.709	64946.16305
559.887	64907.9708
560.064	65009.16617
560.241	64885.5256
560.419	64905.72558
560.596	64885.5256
560.773	64878.79504
560.951	64860.85359
561.128	64744.46985
561.305	64973.14933
561.482	64914.70736
561.66	64863.09573
561.837	64858.61159
562.014	64907.9708
562.191	64982.14977
562.368	64928.18465
562.546	64860.85359
562.723	64961.90231
562.9	64930.4314
563.077	64856.36975
563.254	64952.90751
563.431	64921.44531
563.608	64833.95968
563.785	64950.6592
563.962	64890.01341
564.139	64979.89942
564.317	64863.09573
564.494	64995.65513
564.671	64798.135
564.848	64894.50184
565.025	64946.16305
565.201	64973.14933
565.378	64903.48053
565.555	64901.23562
565.732	64937.17261
565.909	64946.16305
566.086	64928.18465
566.263	64977.64924
566.44	64932.67832
566.617	64973.14933
566.794	64894.50184
566.97	64957.4046
567.147	65027.18973
567.324	64930.4314
567.501	64991.15271
567.678	64928.18465
567.854	64950.6592
568.031	65061.01135
568.208	64930.4314
568.384	64995.65513
568.561	64970.89962
568.738	64995.65513
568.915	64973.14933
569.091	65047.4784
569.268	65006.91393
569.444	65056.49973
569.621	65027.18973
569.798	65054.24415
569.974	64997.90658
570.151	64993.40384
570.327	65009.16617
570.504	64982.14977
570.681	65076.80708
570.857	65045.22346
571.034	65054.24415
571.21	65004.66186
571.387	65151.37927
571.563	65124.24165
571.739	64961.90231
571.916	65174.01196
572.092	65099.38608
572.269	65047.4784
572.445	65061.01135
572.622	65108.4222
572.798	65047.4784
572.974	65101.64487
573.151	65158.16736
573.327	65099.38608
573.503	64997.90658
573.68	65160.43038
573.856	65153.6418
574.032	65158.16736
574.208	65038.45962
574.385	65063.2674
574.561	65176.27613
574.737	65149.11691
574.913	65045.22346
575.089	65149.11691
575.266	65153.6418
575.442	65164.95691
575.618	65004.66186
575.794	65126.50222
575.97	65135.54614
576.146	65065.52361
576.322	65131.02386
576.499	65022.68289
576.675	65040.71408
576.851	65042.96869
577.027	64966.40065
577.203	65099.38608
577.379	65140.06908
577.555	65094.86899
577.731	65049.73349
577.907	64724.36745
578.083	65004.66186
578.259	65076.80708
578.435	65051.98874
578.611	64932.67832
578.786	64948.41105
578.962	65000.15818
579.138	65112.94123
579.314	65004.66186
579.49	65076.80708
579.666	64979.89942
579.842	65056.49973
580.017	65056.49973
580.193	65042.96869
580.369	64991.15271
580.545	65015.92382
580.72	64921.44531
580.896	65051.98874
581.072	64941.66752
581.248	64988.90174
581.423	64916.95319
581.599	65020.42971
581.775	64979.89942
581.95	64982.14977
582.126	65009.16617
582.302	64912.46168
582.477	64975.39921
582.653	65036.20533
582.829	65020.42971
583.004	65110.68164
583.18	65006.91393
583.355	65045.22346
583.531	64975.39921
583.706	64952.90751
583.882	65045.22346
584.057	65128.76296
584.233	64991.15271
584.408	64892.25755
584.584	65011.41856
584.759	65074.55007
584.935	65074.55007
585.11	65061.01135
585.285	65094.86899
585.461	65167.22043
585.636	65067.77999
585.812	65085.83675
585.987	65153.6418
586.162	65140.06908
586.338	65081.32159
586.513	65176.27613
586.688	65237.47138
586.863	65115.20099
587.039	65171.74795
587.214	65146.8547
587.389	65142.33079
587.564	65183.06964
587.74	65140.06908
587.915	65307.88305
588.09	65253.35664
588.265	65189.86463
588.44	65266.97912
588.615	65251.08681
588.791	65239.7402
588.966	65294.24231
589.141	65312.43132
589.316	65232.93424
589.491	65246.54766
589.666	65217.05951
589.841	65180.80497
590.016	65291.96945
590.191	65207.99189
590.366	65339.7353
590.541	65357.95167
590.716	65307.88305
590.891	65285.15188
591.066	65380.73763
591.241	65355.67402
591.416	65373.90003
591.591	65362.50748
591.766	65362.50748
591.941	65476.62898
592.116	65490.35311
592.29	65371.62117
592.465	65419.51358
592.64	65533.85521
592.815	65467.48311
592.99	65517.8206
593.165	65476.62898
593.339	65499.50608
593.514	65469.76931
593.689	65392.1371
593.864	65474.34224
594.038	65501.79477
594.213	65394.41752
594.388	65476.62898
594.562	65453.7696
594.737	65392.1371
594.912	65472.05569
595.086	65529.27299
595.261	65481.20298
595.436	65410.3853
595.61	65430.92787
595.785	65424.07877
595.959	65419.51358
596.134	65460.62556
596.309	65458.34006
596.483	65465.19708
596.658	65453.7696
596.832	65481.20298
597.007	65355.67402
597.181	65513.2409
597.356	65428.64466
597.53	65517.8206
597.704	65490.35311
597.879	65449.19985
598.053	65453.7696
598.228	65367.06398
598.402	65364.78564
598.576	65465.19708
598.751	65380.73763
598.925	65440.06245
599.1	65440.06245
599.274	65485.77769
599.448	65451.48464
599.622	65357.95167
599.797	65435.49481
599.971	65435.49481
600.145	65312.43132
600.32	65408.10366
600.494	65433.21125
600.668	65385.2969
600.842	65373.90003
601.016	65483.49024
601.191	65385.2969
601.365	65176.27613
601.539	65405.8222
601.713	65440.06245
601.887	65348.84211
602.061	65465.19708
602.235	65387.57679
602.409	65458.34006
602.583	65396.69811
602.758	65520.11072
602.932	65458.34006
603.106	65522.40102
603.28	65472.05569
603.454	65426.36163
603.628	65380.73763
603.802	65476.62898
603.976	65460.62556
604.149	65442.34654
604.323	65396.69811
604.497	65474.34224
604.671	65392.1371
604.845	65426.36163
605.019	65465.19708
605.193	65476.62898
605.367	65389.85686
605.541	65421.79609
605.714	65367.06398
605.888	65376.17906
606.062	65446.91524
606.236	65549.89862
606.41	65332.907
606.583	65458.34006
606.757	65481.20298
606.931	65426.36163
607.105	65460.62556
607.278	65465.19708
607.452	65510.95132
607.626	65376.17906
607.799	65460.62556
607.973	65478.91589
608.147	65419.51358
608.32	65476.62898
608.494	65430.92787
608.668	65458.34006
608.841	65357.95167
609.015	65369.34249
609.188	65421.79609
609.362	65531.56401
609.535	65444.6308
609.709	65469.76931
609.882	65433.21125
610.056	65405.8222
610.229	65435.49481
610.403	65437.77854
610.576	65332.907
610.75	65405.8222
610.923	65435.49481
611.097	65492.64108
611.27	65360.22949
611.443	65426.36163
611.617	65526.98216
611.79	65531.56401
611.963	65424.07877
612.137	65435.49481
612.31	65430.92787
612.483	65458.34006
612.657	65442.34654
612.83	65499.50608
613.003	65497.21757
613.177	65458.34006
613.35	65476.62898
613.523	65435.49481
613.696	65412.66711
613.869	65549.89862
614.043	65387.57679
614.216	65435.49481
614.389	65474.34224
614.562	65396.69811
614.735	65451.48464
614.908	65460.62556
615.082	65394.41752
615.255	65440.06245
615.428	65403.54092
615.601	65481.20298
615.774	65453.7696
615.947	65408.10366
616.12	65312.43132
616.293	65348.84211
616.466	65362.50748
616.639	65380.73763
616.812	65412.66711
616.985	65330.63124
617.158	65410.3853
617.331	65428.64466
617.504	65408.10366
617.677	65485.77769
617.85	65440.06245
618.022	65453.7696
618.195	65435.49481
618.368	65371.62117
618.541	65357.95167
618.714	65437.77854
618.887	65426.36163
619.059	65392.1371
619.232	65435.49481
619.405	65278.33583
619.578	65307.88305
619.751	65417.23125
619.923	65394.41752
620.096	65326.08024
620.269	65346.56515
620.441	65396.69811
620.614	65437.77854
620.787	65364.78564
620.96	65378.45826
621.132	65282.87969
621.305	65255.62663
621.477	65312.43132
621.65	65398.97887
621.823	65412.66711
621.995	65307.88305
622.168	65316.98028
622.34	65319.25501
622.513	65330.63124
622.685	65326.08024
622.858	65307.88305
623.03	65367.06398
623.203	65394.41752
623.375	65346.56515
623.548	65387.57679
623.72	65319.25501
623.893	65321.52992
624.065	65344.28836
624.238	65337.45903
624.41	65437.77854
624.582	65276.06415
624.755	65353.39655
624.927	65330.63124
625.1	65323.80499
625.272	65396.69811
625.444	65289.69675
625.617	65203.45908
625.789	65280.60767
625.961	65342.01175
626.133	65278.33583
626.306	65264.70829
626.478	65264.70829
626.65	65248.81715
626.822	65330.63124
626.995	65228.39776
627.167	65239.7402
627.339	65310.1571
627.511	65201.19293
627.683	65239.7402
627.855	65210.25855
628.027	65289.69675
628.2	65223.86196
628.372	65248.81715
628.544	65251.08681
628.716	65248.81715
628.888	65226.12978
629.06	65162.69356
629.232	65326.08024
629.404	65251.08681
629.576	65167.22043
629.748	65266.97912
629.92	65128.76296
630.092	65117.46091
630.264	65214.79235
630.436	65291.96945
630.608	65223.86196
630.78	65219.32682
630.952	65262.43762
631.124	65185.33447
631.295	65207.99189
631.467	65260.16712
631.639	65176.27613
631.811	65255.62663
631.983	65235.20272
632.155	65235.20272
632.326	65230.66592
632.498	65226.12978
632.67	65235.20272
632.842	65269.25013
633.014	65214.79235
633.185	65158.16736
633.357	65246.54766
633.529	65119.721
633.7	65153.6418
633.872	65269.25013
634.044	65271.5213
634.215	65160.43038
634.387	65235.20272
634.559	65312.43132
634.73	65255.62663
634.902	65303.33546
635.074	65239.7402
635.245	65230.66592
635.417	65253.35664
635.588	65167.22043
635.76	65312.43132
635.931	65298.78854
636.103	65312.43132
636.274	65207.99189
636.446	65260.16712
636.617	65194.39545
636.789	65287.42423
636.96	65280.60767
637.132	65301.06192
637.303	65289.69675
637.474	65321.52992
637.646	65239.7402
637.817	65314.70572
637.989	65266.97912
638.16	65326.08024
638.331	65348.84211
638.503	65212.52537
638.674	65244.27834
638.845	65348.84211
639.017	65260.16712
639.188	65262.43762
639.359	65351.11924
639.53	65337.45903
639.702	65266.97912
639.873	65346.56515
640.044	65310.1571
640.215	65321.52992
640.387	65221.59431
640.558	65203.45908
640.729	65176.27613
640.9	65205.72541
641.071	65217.05951
641.242	65221.59431
641.413	65232.93424
641.585	65278.33583
641.756	65205.72541
641.927	65332.907
642.098	65257.89679
642.269	65255.62663
642.44	65321.52992
642.611	65248.81715
642.782	65255.62663
642.953	65164.95691
643.124	65207.99189
643.295	65330.63124
643.466	65196.66111
643.637	65260.16712
643.808	65242.00918
643.979	65174.01196
644.15	65146.8547
644.32	65201.19293
644.491	65219.32682
644.662	65367.06398
644.833	65244.27834
645.004	65210.25855
645.175	65253.35664
645.346	65189.86463
645.516	65282.87969
645.687	65235.20272
645.858	65237.47138
646.029	65187.59947
646.199	65269.25013
646.37	65230.66592
646.541	65294.24231
646.712	65167.22043
646.882	65214.79235
647.053	65246.54766
647.224	65242.00918
647.394	65228.39776
647.565	65232.93424
647.736	65271.5213
647.906	65305.60917
648.077	65232.93424
648.248	65303.33546
648.418	65276.06415
648.589	65319.25501
648.759	65260.16712
648.93	65262.43762
649.1	65321.52992
649.271	65189.86463
649.441	65198.92694
649.612	65271.5213
649.782	65196.66111
649.953	65178.54047
650.123	65230.66592
650.294	65171.74795
650.464	65212.52537
650.635	64919.19917
650.805	65235.20272
650.975	65108.4222
651.146	65271.5213
651.316	65226.12978
651.487	65255.62663
651.657	65257.89679
651.827	65189.86463
651.998	65312.43132
652.168	65198.92694
652.338	65262.43762
652.508	65328.35565
652.679	65251.08681
652.849	65171.74795
653.019	65207.99189
653.189	65203.45908
653.36	65217.05951
653.53	65312.43132
653.7	65219.32682
653.87	65332.907
654.04	65266.97912
654.211	65285.15188
654.381	65189.86463
654.551	65303.33546
654.721	65212.52537
654.891	65287.42423
655.061	65210.25855
655.231	65321.52992
655.401	65335.18293
655.571	65301.06192
655.741	65219.32682
655.911	65266.97912
656.081	65205.72541
656.251	65337.45903
656.421	65232.93424
656.591	65328.35565
656.761	65244.27834
656.931	65369.34249
657.101	65335.18293
657.271	65280.60767
657.441	65257.89679
657.611	65371.62117
657.781	65262.43762
657.951	65305.60917
658.121	65244.27834
658.291	65239.7402
658.46	65346.56515
658.63	65273.79264
658.8	65301.06192
658.97	65269.25013
659.14	65217.05951
659.309	65296.51534
659.479	65251.08681
659.649	65326.08024
659.819	65242.00918
659.988	65362.50748
660.158	65394.41752
660.328	65273.79264
660.497	65337.45903
660.667	65323.80499
660.837	65273.79264
661.006	65253.35664
661.176	65412.66711
661.346	65303.33546
661.515	65344.28836
661.685	65348.84211
661.854	65305.60917
662.024	65332.907
662.194	65294.24231
662.363	65282.87969
662.533	65335.18293
662.702	65430.92787
662.872	65380.73763
663.041	65271.5213
663.211	65417.23125
663.38	65474.34224
663.55	65337.45903
663.719	65332.907
663.889	65456.05475
664.058	65412.66711
664.227	65357.95167
664.397	65344.28836
664.566	65342.01175
664.735	65430.92787
664.905	65392.1371
665.074	65392.1371
665.244	65376.17906
665.413	65440.06245
665.582	65353.39655
665.751	65387.57679
665.921	65389.85686
666.09	65398.97887
666.259	65351.11924
666.428	65394.41752
666.598	65398.97887
666.767	65342.01175
666.936	65351.11924
667.105	65330.63124
667.275	65383.01718
667.444	65380.73763
667.613	65287.42423
667.782	65440.06245
667.951	65344.28836
668.12	65371.62117
668.289	65383.01718
668.458	65335.18293
668.628	65437.77854
668.797	65405.8222
668.966	65421.79609
669.135	65303.33546
669.304	65373.90003
669.473	65373.90003
669.642	65401.25981
669.811	65403.54092
669.98	65355.67402
670.149	65332.907
670.318	65449.19985
670.487	65417.23125
670.656	65362.50748
670.824	65408.10366
670.993	65458.34006
671.162	65360.22949
671.331	65346.56515
671.5	65410.3853
671.669	65430.92787
671.838	65446.91524
672.007	65380.73763
672.175	65396.69811
672.344	65408.10366
672.513	65266.97912
672.682	65442.34654
672.85	65357.95167
673.019	65326.08024
673.188	65301.06192
673.357	65355.67402
673.525	65446.91524
673.694	65446.91524
673.863	65396.69811
674.032	65357.95167
674.2	65424.07877
674.369	65424.07877
674.537	65367.06398
674.706	65462.91123
674.875	65414.94909
675.043	65394.41752
675.212	65380.73763
675.381	65380.73763
675.549	65435.49481
675.718	65453.7696
675.886	65405.8222
676.055	65476.62898
676.223	65449.19985
676.392	65385.2969
676.56	65398.97887
676.729	65410.3853
676.897	65472.05569
677.066	65435.49481
677.234	65433.21125
677.403	65536.14658
677.571	65440.06245
677.739	65430.92787
677.908	65453.7696
678.076	65405.8222
678.244	65419.51358
678.413	65469.76931
678.581	65401.25981
678.75	65456.05475
678.918	65460.62556
679.086	65444.6308
679.254	65538.43814
679.423	65348.84211
679.591	65444.6308
679.759	65440.06245
679.928	65467.48311
680.096	65419.51358
680.264	65453.7696
680.432	65414.94909
680.6	65442.34654
680.769	65394.41752
680.937	65494.92924
681.105	65394.41752
681.273	65392.1371
681.441	65446.91524
681.609	65339.7353
681.777	65446.91524
681.945	65412.66711
682.114	65469.76931
682.282	65421.79609
682.45	65453.7696
682.618	65481.20298
682.786	65538.43814
682.954	65433.21125
683.122	65262.43762
683.29	65360.22949
683.458	65467.48311
683.626	65462.91123
683.794	65433.21125
683.962	65552.19126
684.13	65378.45826
684.298	65492.64108
684.465	65426.36163
684.633	65481.20298
684.801	65494.92924
684.969	65469.76931
685.137	65389.85686
685.305	65490.35311
685.473	65430.92787
685.64	65490.35311
685.808	65568.24479
685.976	65362.50748
686.144	65517.8206
686.312	65348.84211
686.479	65510.95132
686.647	65501.79477
686.815	65460.62556
686.983	65478.91589
687.15	65442.34654
687.318	65476.62898
687.486	65444.6308
687.653	65430.92787
687.821	65483.49024
687.989	65433.21125
688.156	65524.6915
688.324	65499.50608
688.492	65442.34654
688.659	65586.60256
688.827	65414.94909
688.994	65508.66191
689.162	65490.35311
689.329	65383.01718
689.497	65510.95132
689.665	65552.19126
689.832	65440.06245
690	65421.79609
690.167	65520.11072
690.335	65481.20298
690.502	65504.08364
690.669	65440.06245
690.837	65483.49024
691.004	65392.1371
691.172	65389.85686
691.339	65373.90003
691.507	65543.02179
691.674	65508.66191
691.841	65517.8206
692.009	65556.77708
692.176	65472.05569
692.343	65517.8206
692.511	65478.91589
692.678	65485.77769
692.845	65472.05569
693.013	65526.98216
693.18	65437.77854
693.347	65458.34006
693.514	65561.36362
693.682	65460.62556
693.849	65506.37269
694.016	65485.77769
694.183	65417.23125
694.35	65600.37854
694.518	65513.2409
694.685	65515.53066
694.852	65510.95132
695.019	65604.97199
695.186	65474.34224
695.353	65396.69811
695.52	65451.48464
695.687	65446.91524
695.855	65465.19708
696.022	65462.91123
696.189	65508.66191
696.356	65526.98216
696.523	65577.42222
696.69	65394.41752
696.857	65604.97199
697.024	65433.21125
697.191	65524.6915
697.358	65435.49481
697.525	65417.23125
697.692	65467.48311
697.858	65543.02179
698.025	65451.48464
698.192	65456.05475
698.359	65556.77708
698.526	65467.48311
698.693	65474.34224
698.86	65517.8206
699.027	65497.21757
699.193	65563.65716
699.36	65517.8206
699.527	65529.27299
699.694	65552.19126
699.861	65552.19126
700.027	65394.41752
700.194	65440.06245
700.361	65456.05475
700.528	65446.91524
700.694	65501.79477
700.861	65538.43814
701.028	65469.76931
701.195	65469.76931
701.361	65460.62556
701.528	65508.66191
701.694	65451.48464
701.861	65577.42222
702.028	65378.45826
702.194	65437.77854
702.361	65508.66191
702.528	65506.37269
702.694	65499.50608
702.861	65353.39655
703.027	65467.48311
703.194	65524.6915
703.36	65469.76931
703.527	65568.24479
703.693	65414.94909
703.86	65403.54092
704.026	65492.64108
704.193	65644.04596
704.359	65490.35311
704.526	65540.72988
