Data from Sun spf650_Subt2__0__10-02-50-293.txt Node

Date: Tue Sep 23 10:02:50 EDT 2025
User: brett
Spectrometer: USB4F03499
Trigger mode: 4
Integration Time (sec): 1.000000E-1
Scans to average: 1
Electric dark correction enabled: true
Nonlinearity correction enabled: true
Boxcar width: 0
XAxis mode: Wavelengths
Number of Pixels in Spectrum: 3648
>>>>>Begin Spectral Data<<<<<
0	-76.25736
0.225	-76.25736
0.449	-76.25736
0.674	-55.32595
0.898	-78.42964
1.123	-110.06877
1.347	-43.54644
1.572	-16.05987
1.796	75.73495
2.021	64.14605
2.245	-20.587
2.469	36.66636
2.694	-75.58002
2.918	18.34183
3.143	-16.06751
3.367	-20.62725
3.591	107.63606
3.815	330.54666
4.04	13284.44931
4.264	18430.47991
4.488	18003.56054
4.712	18042.21038
4.936	17715.76505
5.161	18069.62606
5.385	18083.03051
5.609	17723.76074
5.833	17777.53704
6.057	18067.16396
6.281	18078.94926
6.505	18243.18172
6.729	18002.15575
6.953	18054.61532
7.177	18013.44064
7.401	18082.47963
7.625	18159.23535
7.849	18300.16078
8.073	18379.64878
8.297	18406.56791
8.521	18293.90177
8.744	18167.15794
8.968	18630.68504
9.192	18384.88407
9.416	18351.0565
9.64	18355.83358
9.863	18396.1471
10.087	18529.27474
10.311	18467.86674
10.535	18588.84205
10.758	18278.29614
10.982	18243.7974
11.205	18364.57786
11.429	18393.41406
11.653	18753.34673
11.876	18729.63079
12.1	18898.14025
12.323	19036.37688
12.547	18777.05697
12.77	18960.36499
12.994	18851.9798
13.217	19082.09209
13.441	18830.62419
13.664	18883.22485
13.887	19001.67401
14.111	18685.38296
14.334	18872.45636
14.557	18875.14111
14.781	18962.38359
15.004	19132.12331
15.227	18892.84002
15.451	19527.419
15.674	19271.98141
15.897	19654.57922
16.12	19302.30358
16.343	19278.7187
16.567	19434.58058
16.79	19457.49643
17.013	19330.34631
17.236	19783.21221
17.459	19522.89251
17.682	19473.41864
17.905	19849.94136
18.128	20104.35585
18.351	20141.27037
18.574	19797.56748
18.797	20193.16765
19.02	20036.86229
19.243	20617.27581
19.466	20116.81922
19.689	20484.56649
19.911	20458.21379
20.134	20951.18487
20.357	20692.27817
20.58	20838.16103
20.803	21186.40375
21.025	21140.327
21.248	21116.47905
21.471	21870.17366
21.694	21479.15702
21.916	21708.2641
22.139	22421.28082
22.362	22412.65221
22.584	22246.59397
22.807	22618.37788
23.029	22954.66644
23.252	23099.92714
23.475	23431.47529
23.697	23805.93244
23.92	24251.92998
24.142	24128.71425
24.365	24699.38912
24.587	25086.84616
24.809	25402.05102
25.032	25772.63327
25.254	25969.9645
25.477	26885.85463
25.699	27376.05196
25.921	27723.64251
26.144	28434.62023
26.366	28217.07673
26.588	29275.27797
26.81	29685.84257
27.033	30235.22789
27.255	30751.97134
27.477	31585.78161
27.699	32695.1744
27.921	33114.16892
28.144	33862.40543
28.366	34777.01297
28.588	36533.01436
28.81	37465.56305
29.032	38549.25318
29.254	39593.41247
29.476	40406.95329
29.698	41558.24172
29.92	43164.59185
30.142	45389.70679
30.364	45201.38719
30.586	46911.59725
30.808	48739.62315
31.029	50338.21032
31.251	51569.83214
31.473	52932.87586
31.695	54805.01282
31.917	55841.75548
32.139	56259.66366
32.36	58373.94186
32.582	60125.15629
32.804	60097.91672
33.026	62894.94275
33.247	63469.99313
33.469	65257.96005
33.691	65560.97409
33.912	65652.71966
34.134	65460.38473
34.355	65636.64322
34.577	65613.69236
34.798	65535.79457
35.02	65567.84499
35.242	65588.46738
35.463	65661.91023
35.684	65577.0087
35.906	65701.00298
36.127	65602.22375
36.349	65510.63659
36.57	65597.63757
36.792	65609.10437
37.013	65609.10437
37.234	65572.42648
37.456	65544.94826
37.677	65645.82866
37.898	65586.17528
38.119	65064.74763
38.341	64597.08749
38.562	63387.11352
38.783	61677.57466
39.004	59049.55548
39.225	57635.74106
39.447	57096.07731
39.668	56410.52982
39.889	54104.54859
40.11	52266.14733
40.331	51363.22834
40.552	49745.25719
40.773	47581.06968
40.994	45712.89248
41.215	43906.32583
41.436	42090.64587
41.657	39738.64582
41.878	38348.49033
42.099	37440.52965
42.32	35708.59028
42.54	34557.19014
42.761	33549.34203
42.982	32257.52606
43.203	31558.04049
43.424	31121.52137
43.645	30035.49259
43.865	29833.32939
44.086	29402.78581
44.307	29267.27447
44.527	28991.61526
44.748	28616.30744
44.969	28539.78991
45.189	28379.9448
45.41	27847.23528
45.631	27916.60831
45.851	28027.4681
46.072	27813.84289
46.292	27406.76855
46.513	27214.26871
46.733	27881.12957
46.954	27324.06854
47.174	27834.56021
47.395	27596.08602
47.615	27267.56018
47.836	27429.88798
48.056	27629.36156
48.276	26750.07023
48.497	27044.38508
48.717	27175.33392
48.937	27354.32306
49.158	27243.30237
49.378	27261.39112
49.598	27529.70139
49.818	27391.45204
50.038	27393.98752
50.259	27189.80952
50.479	27422.24339
50.699	27126.86008
50.919	27423.95162
51.139	27311.84851
51.359	27384.2001
51.579	27608.44387
51.799	27253.49395
52.02	27468.03261
52.24	27282.55364
52.46	27815.11558
52.68	27904.57542
52.899	27823.04018
53.119	27464.97581
53.339	27805.95598
53.559	27728.984
53.779	27975.09937
53.999	28199.59491
54.219	28233.50537
54.439	28402.64893
54.658	28057.83943
54.878	28260.91308
55.098	28589.49753
55.318	28301.22216
55.538	28957.0525
55.757	28974.7884
55.977	28890.37071
56.197	28935.66197
56.416	29498.62708
56.636	29877.98237
56.855	29951.9484
57.075	29442.65873
57.295	29755.23304
57.514	29908.83665
57.734	30295.52221
57.953	30299.30992
58.173	30275.85174
58.392	30283.94833
58.612	30585.12108
58.831	30383.4699
59.051	30823.95507
59.27	30988.4519
59.489	31283.32094
59.709	30776.12576
59.928	32219.21607
60.147	31880.08536
60.367	31821.49876
60.586	31937.80285
60.805	31911.49872
61.024	32230.5569
61.244	32200.45394
61.463	31951.89237
61.682	32610.0557
61.901	32790.94852
62.12	32960.82706
62.34	32866.82548
62.559	33368.87358
62.778	33446.05296
62.997	33692.63962
63.216	33492.51864
63.435	34196.57558
63.654	34010.52756
63.873	34126.80824
64.092	34943.65763
64.311	34994.93044
64.53	35091.32438
64.749	35259.5177
64.968	35436.96951
65.187	36084.01221
65.405	36097.97373
65.624	36000.88214
65.843	36288.66933
66.062	36304.00363
66.281	36763.22707
66.499	37132.08207
66.718	37058.10127
66.937	37971.03053
67.156	37605.5434
67.374	37836.28501
67.593	38731.14737
67.812	38592.82323
68.03	39737.60196
68.249	39444.27053
68.467	39447.5305
68.686	39842.73915
68.905	40328.71115
69.123	40905.21609
69.342	41036.35508
69.56	41325.88063
69.779	41598.96675
69.997	42563.84282
70.216	42726.05656
70.434	43456.6814
70.652	44349.80569
70.871	45714.04701
71.089	46063.55435
71.307	47226.92149
71.526	48053.41612
71.744	49274.20637
71.962	51374.96229
72.181	52850.35185
72.399	55821.62365
72.617	56508.57933
72.835	58410.61941
73.054	59523.67866
73.272	62988.55076
73.49	65618.28108
73.708	65671.10373
73.926	65661.91023
74.144	65657.31458
74.362	65572.42648
74.58	65606.81065
74.798	65604.51711
75.016	65588.46738
75.234	65620.57571
75.452	65595.34475
75.67	65558.68415
75.888	65632.05159
76.106	65533.50659
76.324	65666.50661
76.542	65671.10373
76.76	65590.75965
76.978	65602.22375
77.196	65634.34731
77.413	65560.97409
77.631	65538.08273
77.849	65645.82866
78.067	65556.39439
78.284	65554.1048
78.502	65611.39828
78.72	65611.39828
78.938	65666.50661
79.155	65648.12548
79.373	65602.22375
79.59	65648.12548
79.808	65611.39828
80.026	65636.64322
80.243	65620.57571
80.461	65510.63659
80.678	65494.63813
80.896	65554.1048
81.113	65583.88336
81.331	65615.98663
81.548	65410.21747
81.766	65549.52618
81.983	65572.42648
82.2	65622.87052
82.418	65678.00079
82.635	65542.65957
82.852	65446.69441
83.07	65593.05211
83.287	65604.51711
83.504	65570.13564
83.722	65496.92309
83.939	65586.17528
84.156	65490.06872
84.373	65643.53202
84.591	65602.22375
84.808	65588.46738
85.025	65549.52618
85.242	65622.87052
85.459	65581.59163
85.676	65593.05211
85.893	65659.61231
86.11	65574.7175
86.327	65577.0087
86.544	65588.46738
86.761	65618.28108
86.978	65549.52618
87.195	65583.88336
87.412	65694.10038
87.629	65638.9393
87.846	65599.93057
88.063	65515.20917
88.28	65593.05211
88.497	65602.22375
88.713	65632.05159
88.93	65657.31458
89.147	65618.28108
89.364	65558.68415
89.58	65586.17528
89.797	65558.68415
90.014	65588.46738
90.231	65535.79457
90.447	65613.69236
90.664	65558.68415
90.881	65567.84499
91.097	65522.06938
91.314	65528.93117
91.53	65606.81065
91.747	65577.0087
91.963	65641.23557
92.18	65593.05211
92.396	65593.05211
92.613	65579.30007
92.829	65678.00079
93.046	65661.91023
93.262	65652.71966
93.479	65560.97409
93.695	65567.84499
93.911	65602.22375
94.128	65652.71966
94.344	65515.20917
94.56	65554.1048
94.777	65701.00298
94.993	65632.05159
95.209	65526.64373
95.426	65373.78473
95.642	65655.01703
95.858	65615.98663
96.074	65599.93057
96.29	65666.50661
96.506	65595.34475
96.723	65577.0087
96.939	65648.12548
97.155	65636.64322
97.371	65586.17528
97.587	65618.28108
97.803	65620.57571
98.019	65611.39828
98.235	65554.1048
98.451	65643.53202
98.667	65496.92309
98.883	65634.34731
99.099	65666.50661
99.315	65638.9393
99.53	65579.30007
99.746	65611.39828
99.962	65645.82866
100.178	65602.22375
100.394	65604.51711
100.61	65671.10373
100.825	65556.39439
101.041	65634.34731
101.257	65581.59163
101.473	65586.17528
101.688	65567.84499
101.904	65625.16552
102.12	65593.05211
102.335	65579.30007
102.551	65625.16552
102.766	65533.50659
102.982	65611.39828
103.198	65632.05159
103.413	65590.75965
103.629	65622.87052
103.844	65615.98663
104.06	65604.51711
104.275	65551.8154
104.49	65570.13564
104.706	65643.53202
104.921	65007.30489
105.137	65590.75965
105.352	65524.35646
105.567	65604.51711
105.783	65581.59163
105.998	65574.7175
106.213	65556.39439
106.429	65641.23557
106.644	65625.16552
106.859	65583.88336
107.074	65458.10258
107.29	65643.53202
107.505	65609.10437
107.72	65538.08273
107.935	65542.65957
108.15	65574.7175
108.365	65655.01703
108.58	65551.8154
108.795	65544.94826
109.01	65551.8154
109.226	65675.70159
109.441	65437.57101
109.656	65655.01703
109.871	65487.78429
110.085	65556.39439
110.3	65586.17528
110.515	65664.20833
110.73	65501.49355
110.945	65613.69236
111.16	65556.39439
111.375	65560.97409
111.59	65609.10437
111.804	65579.30007
112.019	65581.59163
112.234	65618.28108
112.449	65556.39439
112.663	65595.34475
112.878	65618.28108
113.093	65597.63757
113.308	65510.63659
113.522	65595.34475
113.737	65717.11553
113.951	65565.55451
114.166	65597.63757
114.381	65586.17528
114.595	65609.10437
114.81	65579.30007
115.024	65593.05211
115.239	65565.55451
115.453	65627.46069
115.668	65611.39828
115.882	65558.68415
116.097	65611.39828
116.311	65694.10038
116.525	65586.17528
116.74	65701.00298
116.954	65549.52618
117.169	65597.63757
117.383	65579.30007
117.597	65535.79457
117.811	65595.34475
118.026	65510.63659
118.24	65547.23713
118.454	65599.93057
118.668	65602.22375
118.883	65602.22375
119.097	65583.88336
119.311	65583.88336
119.525	65586.17528
119.739	65590.75965
119.953	65611.39828
120.167	65469.51511
120.381	65620.57571
120.595	65586.17528
120.809	65627.46069
121.023	65572.42648
121.237	65611.39828
121.451	65620.57571
121.665	65615.98663
121.879	65583.88336
122.093	65519.78246
122.307	65691.79989
122.521	65632.05159
122.735	65519.78246
122.949	65615.98663
123.163	65671.10373
123.376	65554.1048
123.59	65533.50659
123.804	65590.75965
124.018	65627.46069
124.231	65638.9393
124.445	65661.91023
124.659	65517.49573
124.872	65499.20823
125.086	65595.34475
125.3	65590.75965
125.513	65572.42648
125.727	65627.46069
125.94	65574.7175
126.154	65595.34475
126.368	65643.53202
126.581	65618.28108
126.795	65627.46069
127.008	65622.87052
127.222	65655.01703
127.435	65643.53202
127.648	65641.23557
127.862	65570.13564
128.075	65634.34731
128.289	65551.8154
128.502	65645.82866
128.715	65581.59163
128.929	65696.40106
129.142	65622.87052
129.355	65593.05211
129.568	65531.21879
129.782	65570.13564
129.995	65515.20917
130.208	65615.98663
130.421	65636.64322
130.634	65629.75605
130.848	65551.8154
131.061	65515.20917
131.274	65556.39439
131.487	65655.01703
131.7	65627.46069
131.913	65554.1048
132.126	65599.93057
132.339	65503.77905
132.552	65414.77466
132.765	65522.06938
132.978	65599.93057
133.191	65622.87052
133.404	65558.68415
133.617	65618.28108
133.83	65570.13564
134.043	65648.12548
134.255	65673.40257
134.468	65572.42648
134.681	65668.80508
134.894	65710.20904
135.107	65638.9393
135.319	65560.97409
135.532	65588.46738
135.745	65554.1048
135.958	65606.81065
136.17	65680.30018
136.383	65583.88336
136.596	65632.05159
136.808	65604.51711
137.021	65542.65957
137.233	65634.34731
137.446	65577.0087
137.659	65615.98663
137.871	65467.23226
138.084	65606.81065
138.296	65567.84499
138.509	65602.22375
138.721	65636.64322
138.934	65583.88336
139.146	65570.13564
139.358	65629.75605
139.571	65508.35057
139.783	65512.9228
139.996	65588.46738
140.208	65533.50659
140.42	65540.37106
140.632	65567.84499
140.845	65620.57571
141.057	65680.30018
141.269	65627.46069
141.481	65602.22375
141.694	65648.12548
141.906	65581.59163
142.118	65698.70193
142.33	65574.7175
142.542	65655.01703
142.754	65563.26421
142.967	65687.19945
143.179	65641.23557
143.391	65528.93117
143.603	65620.57571
143.815	65517.49573
144.027	65597.63757
144.239	65490.06872
144.451	65588.46738
144.663	65599.93057
144.875	65524.35646
145.086	65492.35334
145.298	65544.94826
145.51	65622.87052
145.722	65526.64373
145.934	65615.98663
146.146	65620.57571
146.358	65604.51711
146.569	65655.01703
146.781	65570.13564
146.993	65652.71966
147.205	65506.06472
147.416	65606.81065
147.628	65597.63757
147.84	65556.39439
148.051	65604.51711
148.263	65570.13564
148.475	65643.53202
148.686	65609.10437
148.898	65533.50659
149.109	65517.49573
149.321	65645.82866
149.532	65524.35646
149.744	65581.59163
149.955	65558.68415
150.167	65613.69236
150.378	65599.93057
150.59	65629.75605
150.801	65668.80508
151.013	65655.01703
151.224	65517.49573
151.435	65604.51711
151.647	65517.49573
151.858	65572.42648
152.069	65604.51711
152.281	65606.81065
152.492	65577.0087
152.703	65611.39828
152.914	65476.36474
153.126	65572.42648
153.337	65577.0087
153.548	65673.40257
153.759	65567.84499
153.97	65652.71966
154.181	65636.64322
154.392	65547.23713
154.604	65664.20833
154.815	65627.46069
155.026	65560.97409
155.237	65604.51711
155.448	65496.92309
155.659	65579.30007
155.87	65586.17528
156.081	65565.55451
156.292	65634.34731
156.502	65666.50661
156.713	65563.26421
156.924	65540.37106
157.135	65583.88336
157.346	65599.93057
157.557	65563.26421
157.768	65629.75605
157.978	65671.10373
158.189	65574.7175
158.4	65636.64322
158.611	65574.7175
158.821	65524.35646
159.032	65613.69236
159.243	65544.94826
159.453	65593.05211
159.664	65593.05211
159.875	65554.1048
160.085	65629.75605
160.296	65554.1048
160.507	65613.69236
160.717	65638.9393
160.928	65551.8154
161.138	65756.28403
161.349	65611.39828
161.559	65678.00079
161.77	65609.10437
161.98	65632.05159
162.19	65558.68415
162.401	65613.69236
162.611	65547.23713
162.822	65620.57571
163.032	65613.69236
163.242	65627.46069
163.453	65547.23713
163.663	65650.42248
163.873	65574.7175
164.084	65636.64322
164.294	65648.12548
164.504	65597.63757
164.714	65579.30007
164.924	65581.59163
165.135	65632.05159
165.345	65551.8154
165.555	65590.75965
165.765	65538.08273
165.975	65547.23713
166.185	65595.34475
166.395	65622.87052
166.605	65664.20833
166.815	65652.71966
167.025	65611.39828
167.235	65512.9228
167.445	65710.20904
167.655	65574.7175
167.865	65604.51711
168.075	65588.46738
168.285	65604.51711
168.495	65586.17528
168.705	65522.06938
168.915	65496.92309
169.124	65560.97409
169.334	65563.26421
169.544	65567.84499
169.754	65604.51711
169.964	65558.68415
170.173	65533.50659
170.383	65579.30007
170.593	65586.17528
170.802	65542.65957
171.012	65645.82866
171.222	65609.10437
171.431	65650.42248
171.641	65615.98663
171.851	65671.10373
172.06	65629.75605
172.27	65632.05159
172.479	65565.55451
172.689	65627.46069
172.898	65574.7175
173.108	65618.28108
173.317	65551.8154
173.527	65657.31458
173.736	65661.91023
173.945	65588.46738
174.155	65549.52618
174.364	65551.8154
174.574	65588.46738
174.783	65599.93057
174.992	65538.08273
175.202	65597.63757
175.411	65540.37106
175.62	65627.46069
175.829	65641.23557
176.039	65577.0087
176.248	65547.23713
176.457	65599.93057
176.666	65515.20917
176.875	65632.05159
177.084	65560.97409
177.294	65638.9393
177.503	65652.71966
177.712	65510.63659
177.921	65634.34731
178.13	65602.22375
178.339	65689.49958
178.548	65622.87052
178.757	65590.75965
178.966	65551.8154
179.175	65565.55451
179.384	65609.10437
179.593	65586.17528
179.802	65664.20833
180.011	65590.75965
180.219	65611.39828
180.428	65581.59163
180.637	65581.59163
180.846	65551.8154
181.055	65583.88336
181.263	65609.10437
181.472	65506.06472
181.681	65638.9393
181.89	65574.7175
182.098	65508.35057
182.307	65615.98663
182.516	65577.0087
182.724	65593.05211
182.933	65556.39439
183.142	65680.30018
183.35	65577.0087
183.559	65583.88336
183.767	65599.93057
183.976	65629.75605
184.184	65643.53202
184.393	65570.13564
184.601	65629.75605
184.81	65510.63659
185.018	65634.34731
185.227	65572.42648
185.435	65652.71966
185.644	65556.39439
185.852	65698.70193
186.06	65554.1048
186.269	65554.1048
186.477	65549.52618
186.685	65597.63757
186.894	65508.35057
187.102	65593.05211
187.31	65524.35646
187.518	65597.63757
187.727	65682.59975
187.935	65659.61231
188.143	65599.93057
188.351	65567.84499
188.559	65659.61231
188.768	65522.06938
188.976	65542.65957
189.184	65558.68415
189.392	65556.39439
189.6	65565.55451
189.808	65485.50002
190.016	65627.46069
190.224	65615.98663
190.432	65586.17528
190.64	65590.75965
190.848	65581.59163
191.056	65533.50659
191.264	65572.42648
191.472	65597.63757
191.679	65613.69236
191.887	65606.81065
192.095	65689.49958
192.303	65570.13564
192.511	65620.57571
192.719	65696.40106
192.926	65540.37106
193.134	65696.40106
193.342	65625.16552
193.55	65604.51711
193.757	65597.63757
193.965	65574.7175
194.173	65558.68415
194.38	65664.20833
194.588	65638.9393
194.796	65618.28108
195.003	65542.65957
195.211	65638.9393
195.418	65620.57571
195.626	65687.19945
195.833	65581.59163
196.041	65538.08273
196.248	65597.63757
196.456	65540.37106
196.663	65496.92309
196.871	65627.46069
197.078	65579.30007
197.285	65604.51711
197.493	65579.30007
197.7	65460.38473
197.908	65572.42648
198.115	65613.69236
198.322	65583.88336
198.529	65655.01703
198.737	65673.40257
198.944	65579.30007
199.151	65671.10373
199.358	65636.64322
199.566	65714.81318
199.773	65506.06472
199.98	65602.22375
200.187	65632.05159
200.394	65595.34475
200.601	65474.08135
200.809	65684.89951
201.016	65572.42648
201.223	65565.55451
201.43	65680.30018
201.637	65622.87052
201.844	65627.46069
202.051	65701.00298
202.258	65577.0087
202.465	65618.28108
202.672	65689.49958
202.878	65595.34475
203.085	65622.87052
203.292	65577.0087
203.499	65547.23713
203.706	65595.34475
203.913	65593.05211
204.12	65655.01703
204.326	65636.64322
204.533	65648.12548
204.74	65538.08273
204.947	65586.17528
205.153	65597.63757
205.36	65581.59163
205.567	65687.19945
205.773	65680.30018
205.98	65558.68415
206.187	65602.22375
206.393	65593.05211
206.6	65615.98663
206.806	65657.31458
207.013	65531.21879
207.22	65538.08273
207.426	65648.12548
207.633	65588.46738
207.839	65522.06938
208.046	65554.1048
208.252	65556.39439
208.458	65551.8154
208.665	65579.30007
208.871	65618.28108
209.078	65510.63659
209.284	65602.22375
209.49	65613.69236
209.697	65615.98663
209.903	65655.01703
210.109	65620.57571
210.316	65554.1048
210.522	65634.34731
210.728	65572.42648
210.934	65376.06049
211.14	65615.98663
211.347	65675.70159
211.553	65560.97409
211.759	65583.88336
211.965	65538.08273
212.171	65560.97409
212.377	65526.64373
212.583	65588.46738
212.789	65625.16552
212.996	65574.7175
213.202	65540.37106
213.408	65581.59163
213.614	65588.46738
213.82	65636.64322
214.025	65620.57571
214.231	65666.50661
214.437	65625.16552
214.643	65522.06938
214.849	65586.17528
215.055	65593.05211
215.261	65650.42248
215.467	65583.88336
215.672	65664.20833
215.878	65524.35646
216.084	65643.53202
216.29	65583.88336
216.496	65508.35057
216.701	65551.8154
216.907	65645.82866
217.113	65586.17528
217.318	65517.49573
217.524	65629.75605
217.73	65641.23557
217.935	65609.10437
218.141	65556.39439
218.346	65574.7175
218.552	65606.81065
218.758	65574.7175
218.963	65563.26421
219.169	65572.42648
219.374	65583.88336
219.58	65583.88336
219.785	65604.51711
219.991	65531.21879
220.196	65684.89951
220.401	65618.28108
220.607	65588.46738
220.812	65503.77905
221.017	65593.05211
221.223	65540.37106
221.428	65515.20917
221.633	65535.79457
221.839	65583.88336
222.044	65643.53202
222.249	65574.7175
222.454	65567.84499
222.66	65570.13564
222.865	65615.98663
223.07	65469.51511
223.275	65590.75965
223.48	65558.68415
223.686	65643.53202
223.891	65673.40257
224.096	65666.50661
224.301	65483.21594
224.506	65638.9393
224.711	65544.94826
224.916	65625.16552
225.121	65618.28108
225.326	65615.98663
225.531	65643.53202
225.736	65622.87052
225.941	65652.71966
226.146	65602.22375
226.351	65572.42648
226.555	65570.13564
226.76	65565.55451
226.965	65668.80508
227.17	65611.39828
227.375	65634.34731
227.58	65618.28108
227.784	65549.52618
227.989	65707.90725
228.194	65629.75605
228.399	65558.68415
228.603	65650.42248
228.808	65625.16552
229.013	65535.79457
229.217	65588.46738
229.422	65641.23557
229.627	65602.22375
229.831	65622.87052
230.036	65554.1048
230.24	65581.59163
230.445	65558.68415
230.649	65581.59163
230.854	65572.42648
231.058	65611.39828
231.263	65599.93057
231.467	65567.84499
231.672	65606.81065
231.876	65588.46738
232.081	65538.08273
232.285	65560.97409
232.489	65558.68415
232.694	65627.46069
232.898	65538.08273
233.102	65494.63813
233.307	65581.59163
233.511	65604.51711
233.715	65556.39439
233.919	65533.50659
234.124	65648.12548
234.328	65687.19945
234.532	65583.88336
234.736	65544.94826
234.94	65638.9393
235.145	65579.30007
235.349	65567.84499
235.553	65474.08135
235.757	65483.21594
235.961	65641.23557
236.165	65634.34731
236.369	65549.52618
236.573	65551.8154
236.777	65648.12548
236.981	65574.7175
237.185	65510.63659
237.389	65609.10437
237.593	65588.46738
237.797	65558.68415
238.001	65554.1048
238.205	65570.13564
238.409	65625.16552
238.612	65629.75605
238.816	65467.23226
239.02	65593.05211
239.224	65606.81065
239.428	65556.39439
239.631	65579.30007
239.835	65563.26421
240.039	65593.05211
240.243	65542.65957
240.446	65517.49573
240.65	65643.53202
240.854	65742.45369
241.057	65567.84499
241.261	65643.53202
241.464	65664.20833
241.668	65540.37106
241.872	65629.75605
242.075	65590.75965
242.279	65579.30007
242.482	65627.46069
242.686	65618.28108
242.889	65526.64373
243.093	65629.75605
243.296	65533.50659
243.499	65590.75965
243.703	65593.05211
243.906	65652.71966
244.11	65563.26421
244.313	65597.63757
244.516	65572.42648
244.72	65533.50659
244.923	65655.01703
245.126	65499.20823
245.33	65570.13564
245.533	65645.82866
245.736	65572.42648
245.939	65609.10437
246.142	65577.0087
246.346	65625.16552
246.549	65671.10373
246.752	65629.75605
246.955	65606.81065
247.158	65565.55451
247.361	65611.39828
247.564	65551.8154
247.767	65510.63659
247.971	65593.05211
248.174	65560.97409
248.377	65611.39828
248.58	65671.10373
248.783	65636.64322
248.985	65597.63757
249.188	65611.39828
249.391	65563.26421
249.594	65593.05211
249.797	65641.23557
250	65512.9228
250.203	65609.10437
250.406	65615.98663
250.609	65643.53202
250.811	65620.57571
251.014	65620.57571
251.217	65652.71966
251.42	65636.64322
251.622	65469.51511
251.825	65533.50659
252.028	65620.57571
252.231	65625.16552
252.433	65638.9393
252.636	65531.21879
252.838	65558.68415
253.041	65595.34475
253.244	65544.94826
253.446	65494.63813
253.649	65581.59163
253.851	65538.08273
254.054	65615.98663
254.256	65528.93117
254.459	65620.57571
254.661	65563.26421
254.864	65641.23557
255.066	65437.57101
255.269	65599.93057
255.471	65565.55451
255.673	65549.52618
255.876	65620.57571
256.078	65565.55451
256.281	65577.0087
256.483	65593.05211
256.685	65648.12548
256.887	65583.88336
257.09	65574.7175
257.292	65638.9393
257.494	65549.52618
257.696	65609.10437
257.899	65638.9393
258.101	65496.92309
258.303	65570.13564
258.505	65668.80508
258.707	65602.22375
258.909	65629.75605
259.111	65689.49958
259.314	65570.13564
259.516	65620.57571
259.718	65533.50659
259.92	65579.30007
260.122	65606.81065
260.324	65620.57571
260.526	65512.9228
260.728	65577.0087
260.93	65558.68415
261.131	65675.70159
261.333	65634.34731
261.535	65597.63757
261.737	65625.16552
261.939	65551.8154
262.141	65588.46738
262.343	65544.94826
262.544	65563.26421
262.746	65563.26421
262.948	65645.82866
263.15	65595.34475
263.352	65524.35646
263.553	65593.05211
263.755	65645.82866
263.957	65519.78246
264.158	65556.39439
264.36	65579.30007
264.562	65542.65957
264.763	65629.75605
264.965	65560.97409
265.166	65613.69236
265.368	65517.49573
265.569	65622.87052
265.771	65618.28108
265.972	65554.1048
266.174	65622.87052
266.375	65609.10437
266.577	65595.34475
266.778	65563.26421
266.98	65593.05211
267.181	65643.53202
267.383	65664.20833
267.584	65515.20917
267.785	65599.93057
267.987	65620.57571
268.188	65668.80508
268.389	65554.1048
268.591	65664.20833
268.792	65661.91023
268.993	65565.55451
269.194	65620.57571
269.396	65528.93117
269.597	65581.59163
269.798	65632.05159
269.999	65579.30007
270.2	65661.91023
270.401	65524.35646
270.603	65622.87052
270.804	65638.9393
271.005	65641.23557
271.206	65593.05211
271.407	65565.55451
271.608	65519.78246
271.809	65597.63757
272.01	65583.88336
272.211	65611.39828
272.412	65549.52618
272.613	65542.65957
272.814	65645.82866
273.015	65618.28108
273.216	65638.9393
273.416	65613.69236
273.617	65538.08273
273.818	65563.26421
274.019	65606.81065
274.22	65547.23713
274.421	65577.0087
274.621	65613.69236
274.822	65579.30007
275.023	65583.88336
275.224	65590.75965
275.424	65673.40257
275.625	65705.60564
275.826	65599.93057
276.026	65643.53202
276.227	65606.81065
276.428	65558.68415
276.628	65551.8154
276.829	65554.1048
277.029	65606.81065
277.23	65583.88336
277.43	65560.97409
277.631	65517.49573
277.831	65675.70159
278.032	65652.71966
278.232	65606.81065
278.433	65622.87052
278.633	65515.20917
278.834	65625.16552
279.034	65554.1048
279.234	65524.35646
279.435	65595.34475
279.635	65574.7175
279.835	65602.22375
280.036	65512.9228
280.236	65687.19945
280.436	65622.87052
280.637	65595.34475
280.837	65528.93117
281.037	65599.93057
281.237	65599.93057
281.438	65613.69236
281.638	65622.87052
281.838	65618.28108
282.038	65618.28108
282.238	65595.34475
282.438	65604.51711
282.638	65602.22375
282.838	65620.57571
283.038	65574.7175
283.239	65615.98663
283.439	65597.63757
283.639	65501.49355
283.839	65632.05159
284.039	65572.42648
284.238	65597.63757
284.438	65554.1048
284.638	65648.12548
284.838	65625.16552
285.038	65627.46069
285.238	65650.42248
285.438	65590.75965
285.638	65588.46738
285.838	65593.05211
286.037	65558.68415
286.237	65632.05159
286.437	65638.9393
286.637	65615.98663
286.836	65613.69236
287.036	65664.20833
287.236	65560.97409
287.436	65648.12548
287.635	65583.88336
287.835	65593.05211
288.034	65597.63757
288.234	65503.77905
288.434	65570.13564
288.633	65606.81065
288.833	65641.23557
289.032	65696.40106
289.232	65583.88336
289.431	65583.88336
289.631	65620.57571
289.83	65515.20917
290.03	65643.53202
290.229	65632.05159
290.429	65703.30422
290.628	65533.50659
290.828	65666.50661
291.027	65689.49958
291.226	65615.98663
291.426	65577.0087
291.625	65460.38473
291.824	65611.39828
292.024	65611.39828
292.223	65643.53202
292.422	65602.22375
292.621	65620.57571
292.821	65567.84499
293.02	65606.81065
293.219	65535.79457
293.418	65641.23557
293.617	65547.23713
293.817	65634.34731
294.016	65506.06472
294.215	65538.08273
294.414	65680.30018
294.613	65615.98663
294.812	65602.22375
295.011	65629.75605
295.21	65579.30007
295.409	65668.80508
295.608	65714.81318
295.807	65634.34731
296.006	65570.13564
296.205	65604.51711
296.404	65469.51511
296.603	65622.87052
296.802	65508.35057
297.001	65632.05159
297.2	65629.75605
297.398	65648.12548
297.597	65535.79457
297.796	65673.40257
297.995	65657.31458
298.194	65554.1048
298.392	65618.28108
298.591	65611.39828
298.79	65655.01703
298.988	65622.87052
299.187	65618.28108
299.386	65588.46738
299.585	65606.81065
299.783	65590.75965
299.982	65526.64373
300.18	65625.16552
300.379	65613.69236
300.578	65615.98663
300.776	65673.40257
300.975	65579.30007
301.173	65522.06938
301.372	65606.81065
301.57	65625.16552
301.769	65629.75605
301.967	65558.68415
302.166	65606.81065
302.364	65650.42248
302.562	65602.22375
302.761	65556.39439
302.959	65611.39828
303.157	65565.55451
303.356	65638.9393
303.554	65547.23713
303.752	65606.81065
303.951	65572.42648
304.149	65485.50002
304.347	65579.30007
304.546	65549.52618
304.744	65586.17528
304.942	65570.13564
305.14	65638.9393
305.338	65664.20833
305.536	65615.98663
305.735	65618.28108
305.933	65625.16552
306.131	65634.34731
306.329	65547.23713
306.527	65664.20833
306.725	65611.39828
306.923	65558.68415
307.121	65501.49355
307.319	65636.64322
307.517	65638.9393
307.715	65588.46738
307.913	65478.64829
308.111	65565.55451
308.309	65581.59163
308.507	65613.69236
308.705	65602.22375
308.903	65657.31458
309.1	65538.08273
309.298	65542.65957
309.496	65583.88336
309.694	65620.57571
309.892	65645.82866
310.089	65652.71966
310.287	65602.22375
310.485	65632.05159
310.683	65588.46738
310.88	65606.81065
311.078	65613.69236
311.276	65549.52618
311.473	65599.93057
311.671	65590.75965
311.869	65547.23713
312.066	65597.63757
312.264	65595.34475
312.461	65517.49573
312.659	65538.08273
312.856	65549.52618
313.054	65627.46069
313.251	65622.87052
313.449	65535.79457
313.646	65604.51711
313.844	65648.12548
314.041	65604.51711
314.239	65533.50659
314.436	65524.35646
314.634	65492.35334
314.831	65549.52618
315.028	65671.10373
315.226	65604.51711
315.423	65533.50659
315.62	65638.9393
315.817	65586.17528
316.015	65478.64829
316.212	65634.34731
316.409	65554.1048
316.606	65570.13564
316.804	65615.98663
317.001	65650.42248
317.198	65551.8154
317.395	65551.8154
317.592	65551.8154
317.789	65602.22375
317.987	65579.30007
318.184	65632.05159
318.381	65668.80508
318.578	65554.1048
318.775	65664.20833
318.972	65659.61231
319.169	65657.31458
319.366	65549.52618
319.563	65586.17528
319.76	65625.16552
319.957	65615.98663
320.154	65629.75605
320.351	65547.23713
320.547	65570.13564
320.744	65609.10437
320.941	65487.78429
321.138	65602.22375
321.335	65588.46738
321.532	65636.64322
321.728	65556.39439
321.925	65655.01703
322.122	65476.36474
322.319	65703.30422
322.515	65547.23713
322.712	65560.97409
322.909	65673.40257
323.105	65678.00079
323.302	65538.08273
323.499	65517.49573
323.695	65565.55451
323.892	65595.34475
324.089	65551.8154
324.285	65618.28108
324.482	65627.46069
324.678	65678.00079
324.875	65632.05159
325.071	65581.59163
325.268	65586.17528
325.464	65611.39828
325.661	65590.75965
325.857	65604.51711
326.054	65638.9393
326.25	65565.55451
326.446	65563.26421
326.643	65583.88336
326.839	65606.81065
327.035	65687.19945
327.232	65538.08273
327.428	65682.59975
327.624	65675.70159
327.821	65593.05211
328.017	65652.71966
328.213	65629.75605
328.409	65593.05211
328.606	65572.42648
328.802	65574.7175
328.998	65609.10437
329.194	65671.10373
329.39	65549.52618
329.586	65593.05211
329.783	65554.1048
329.979	65581.59163
330.175	65611.39828
330.371	65593.05211
330.567	65609.10437
330.763	65581.59163
330.959	65645.82866
331.155	65618.28108
331.351	65627.46069
331.547	65563.26421
331.743	65703.30422
331.939	65599.93057
332.135	65627.46069
332.33	65526.64373
332.526	65590.75965
332.722	65574.7175
332.918	65542.65957
333.114	65645.82866
333.31	65490.06872
333.506	65517.49573
333.701	65595.34475
333.897	65705.60564
334.093	65551.8154
334.289	65657.31458
334.484	65492.35334
334.68	65508.35057
334.876	65535.79457
335.071	65602.22375
335.267	65531.21879
335.463	65613.69236
335.658	65611.39828
335.854	65721.72079
336.049	65597.63757
336.245	65627.46069
336.441	65622.87052
336.636	65574.7175
336.832	65556.39439
337.027	65474.08135
337.223	65661.91023
337.418	65519.78246
337.613	65652.71966
337.809	65570.13564
338.004	65645.82866
338.2	65588.46738
338.395	65638.9393
338.591	65544.94826
338.786	65652.71966
338.981	65648.12548
339.177	65657.31458
339.372	65583.88336
339.567	65524.35646
339.762	65556.39439
339.958	65724.0237
340.153	65682.59975
340.348	65054.57205
340.543	65604.51711
340.739	65648.12548
340.934	65618.28108
341.129	65565.55451
341.324	65565.55451
341.519	65673.40257
341.714	65737.84507
341.909	65652.71966
342.104	65593.05211
342.299	65602.22375
342.495	65625.16552
342.69	65643.53202
342.885	65629.75605
343.08	65344.2154
343.275	65510.63659
343.469	65613.69236
343.664	65558.68415
343.859	65602.22375
344.054	65664.20833
344.249	65645.82866
344.444	65590.75965
344.639	65625.16552
344.834	65650.42248
345.029	65597.63757
345.223	65572.42648
345.418	65652.71966
345.613	65583.88336
345.808	65602.22375
346.003	65606.81065
346.197	65602.22375
346.392	65586.17528
346.587	65490.06872
346.781	65615.98663
346.976	65574.7175
347.171	65519.78246
347.365	65625.16552
347.56	65622.87052
347.755	65544.94826
347.949	65620.57571
348.144	65650.42248
348.338	65588.46738
348.533	65583.88336
348.727	65634.34731
348.922	65551.8154
349.116	65666.50661
349.311	65595.34475
349.505	65666.50661
349.7	65650.42248
349.894	65638.9393
350.089	65574.7175
350.283	65609.10437
350.477	65593.05211
350.672	65611.39828
350.866	65533.50659
351.06	65588.46738
351.255	65593.05211
351.449	65597.63757
351.643	65597.63757
351.837	65554.1048
352.032	65694.10038
352.226	65643.53202
352.42	65648.12548
352.614	65531.21879
352.809	65634.34731
353.003	65590.75965
353.197	65577.0087
353.391	65613.69236
353.585	65579.30007
353.779	65675.70159
353.973	65531.21879
354.167	65567.84499
354.361	65655.01703
354.555	65542.65957
354.749	65611.39828
354.943	65634.34731
355.137	65570.13564
355.331	65618.28108
355.525	65632.05159
355.719	65570.13564
355.913	65609.10437
356.107	65581.59163
356.301	65611.39828
356.495	65606.81065
356.689	65597.63757
356.883	65570.13564
357.076	65666.50661
357.27	65535.79457
357.464	65632.05159
357.658	65533.50659
357.852	65604.51711
358.045	65572.42648
358.239	65645.82866
358.433	65620.57571
358.626	65632.05159
358.82	65604.51711
359.014	65583.88336
359.207	65593.05211
359.401	65684.89951
359.595	65572.42648
359.788	65625.16552
359.982	65597.63757
360.175	65563.26421
360.369	65620.57571
360.563	65593.05211
360.756	65604.51711
360.95	65581.59163
361.143	65691.79989
361.336	65742.45369
361.53	65648.12548
361.723	65634.34731
361.917	65577.0087
362.11	65636.64322
362.304	65611.39828
362.497	65602.22375
362.69	65476.36474
362.884	65586.17528
363.077	65625.16552
363.27	65618.28108
363.464	65593.05211
363.657	65634.34731
363.85	65551.8154
364.043	65620.57571
364.237	65593.05211
364.43	65565.55451
364.623	65560.97409
364.816	65650.42248
365.009	65540.37106
365.202	65625.16552
365.396	65524.35646
365.589	65586.17528
365.782	65586.17528
365.975	65666.50661
366.168	65556.39439
366.361	65519.78246
366.554	65602.22375
366.747	65634.34731
366.94	65567.84499
367.133	65606.81065
367.326	65618.28108
367.519	65620.57571
367.712	65728.63008
367.905	65615.98663
368.098	65641.23557
368.291	65499.20823
368.484	65602.22375
368.676	65572.42648
368.869	65673.40257
369.062	65613.69236
369.255	65597.63757
369.448	65560.97409
369.64	65586.17528
369.833	65625.16552
370.026	65551.8154
370.219	65668.80508
370.411	65496.92309
370.604	65682.59975
370.797	65586.17528
370.989	65558.68415
371.182	65675.70159
371.375	65547.23713
371.567	65577.0087
371.76	65609.10437
371.952	65678.00079
372.145	65581.59163
372.338	65574.7175
372.53	65583.88336
372.723	65661.91023
372.915	65609.10437
373.108	65636.64322
373.3	65570.13564
373.493	65563.26421
373.685	65560.97409
373.877	65655.01703
374.07	65544.94826
374.262	65535.79457
374.455	65645.82866
374.647	65703.30422
374.839	65538.08273
375.032	65593.05211
375.224	65593.05211
375.416	65652.71966
375.609	65156.09472
375.801	65599.93057
375.993	65645.82866
376.185	65657.31458
376.378	65609.10437
376.57	65588.46738
376.762	65583.88336
376.954	65570.13564
377.146	65556.39439
377.338	65648.12548
377.53	65638.9393
377.723	65554.1048
377.915	65643.53202
378.107	65602.22375
378.299	65634.34731
378.491	65629.75605
378.683	65583.88336
378.875	65625.16552
379.067	65535.79457
379.259	65563.26421
379.451	65611.39828
379.643	65547.23713
379.835	65577.0087
380.027	65531.21879
380.219	65643.53202
380.41	65597.63757
380.602	65590.75965
380.794	65689.49958
380.986	65634.34731
381.178	65604.51711
381.37	65611.39828
381.561	65595.34475
381.753	65512.9228
381.945	65526.64373
382.137	65593.05211
382.328	65622.87052
382.52	65634.34731
382.712	65627.46069
382.903	65531.21879
383.095	65613.69236
383.287	65659.61231
383.478	65572.42648
383.67	65632.05159
383.862	65590.75965
384.053	65583.88336
384.245	65629.75605
384.436	65560.97409
384.628	65588.46738
384.819	65615.98663
385.011	65556.39439
385.202	65609.10437
385.394	65629.75605
385.585	65503.77905
385.777	65625.16552
385.968	65666.50661
386.159	65602.22375
386.351	65595.34475
386.542	65567.84499
386.734	65519.78246
386.925	65620.57571
387.116	65579.30007
387.308	65583.88336
387.499	65645.82866
387.69	65560.97409
387.881	65519.78246
388.073	65595.34475
388.264	65593.05211
388.455	65680.30018
388.646	65547.23713
388.837	65565.55451
389.029	65588.46738
389.22	65613.69236
389.411	65634.34731
389.602	65590.75965
389.793	65625.16552
389.984	65604.51711
390.175	65574.7175
390.366	65560.97409
390.557	65657.31458
390.748	65597.63757
390.939	65673.40257
391.13	65620.57571
391.321	65583.88336
391.512	65615.98663
391.703	65602.22375
391.894	65629.75605
392.085	65652.71966
392.276	65643.53202
392.467	65657.31458
392.658	65638.9393
392.849	65593.05211
393.039	65622.87052
393.23	65606.81065
393.421	65581.59163
393.612	65597.63757
393.803	65604.51711
393.993	65503.77905
394.184	65567.84499
394.375	65655.01703
394.566	65593.05211
394.756	65581.59163
394.947	65544.94826
395.138	65627.46069
395.328	65531.21879
395.519	65551.8154
395.709	65657.31458
395.9	65499.20823
396.091	65627.46069
396.281	65629.75605
396.472	65622.87052
396.662	65648.12548
396.853	65638.9393
397.043	65620.57571
397.234	65625.16552
397.424	65579.30007
397.615	65579.30007
397.805	65588.46738
397.996	65678.00079
398.186	65542.65957
398.376	65524.35646
398.567	65636.64322
398.757	65606.81065
398.947	65737.84507
399.138	65554.1048
399.328	65542.65957
399.518	65659.61231
399.709	65689.49958
399.899	65602.22375
400.089	65638.9393
400.279	65593.05211
400.47	65599.93057
400.66	65597.63757
400.85	65526.64373
401.04	65563.26421
401.23	65538.08273
401.421	65577.0087
401.611	65620.57571
401.801	65560.97409
401.991	65593.05211
402.181	65611.39828
402.371	65579.30007
402.561	65531.21879
402.751	65613.69236
402.941	65565.55451
403.131	65524.35646
403.321	65634.34731
403.511	65583.88336
403.701	65554.1048
403.891	65593.05211
404.081	65590.75965
404.271	65641.23557
404.461	65522.06938
404.651	65650.42248
404.84	65572.42648
405.03	65563.26421
405.22	65638.9393
405.41	65627.46069
405.6	65540.37106
405.789	65544.94826
405.979	65528.93117
406.169	65668.80508
406.359	65602.22375
406.548	65652.71966
406.738	65652.71966
406.928	65526.64373
407.118	65560.97409
407.307	65547.23713
407.497	65595.34475
407.686	65538.08273
407.876	65645.82866
408.066	65625.16552
408.255	65634.34731
408.445	65627.46069
408.634	65554.1048
408.824	65574.7175
409.013	65618.28108
409.203	65540.37106
409.392	65574.7175
409.582	65579.30007
409.771	65673.40257
409.961	65632.05159
410.15	65560.97409
410.34	65572.42648
410.529	65648.12548
410.718	65588.46738
410.908	65460.38473
411.097	65648.12548
411.286	65632.05159
411.476	65661.91023
411.665	65622.87052
411.854	65613.69236
412.044	65657.31458
412.233	65572.42648
412.422	65572.42648
412.611	65590.75965
412.8	65549.52618
412.99	65636.64322
413.179	65556.39439
413.368	65629.75605
413.557	65655.01703
413.746	65606.81065
413.935	65629.75605
414.124	65675.70159
414.313	65540.37106
414.503	65574.7175
414.692	65632.05159
414.881	65519.78246
415.07	65535.79457
415.259	65609.10437
415.448	65533.50659
415.637	65590.75965
415.826	65572.42648
416.015	65664.20833
416.203	65609.10437
416.392	65558.68415
416.581	65620.57571
416.77	65579.30007
416.959	65567.84499
417.148	65627.46069
417.337	65638.9393
417.525	65583.88336
417.714	65565.55451
417.903	65643.53202
418.092	65638.9393
418.281	65572.42648
418.469	65581.59163
418.658	65586.17528
418.847	65615.98663
419.035	65650.42248
419.224	65664.20833
419.413	65641.23557
419.601	65583.88336
419.79	65673.40257
419.979	65609.10437
420.167	65643.53202
420.356	65606.81065
420.544	65570.13564
420.733	65638.9393
420.921	65618.28108
421.11	65570.13564
421.299	65556.39439
421.487	65599.93057
421.675	65595.34475
421.864	65604.51711
422.052	65622.87052
422.241	65503.77905
422.429	65615.98663
422.618	65606.81065
422.806	65583.88336
422.994	65615.98663
423.183	65560.97409
423.371	65615.98663
423.559	65574.7175
423.748	65547.23713
423.936	65620.57571
424.124	65705.60564
424.312	65641.23557
424.501	65583.88336
424.689	65606.81065
424.877	65604.51711
425.065	65602.22375
425.254	65620.57571
425.442	65458.10258
425.63	65526.64373
425.818	65517.49573
426.006	65606.81065
426.194	65512.9228
426.382	65531.21879
426.57	65563.26421
426.758	65579.30007
426.946	65615.98663
427.134	65554.1048
427.323	65632.05159
427.51	65602.22375
427.698	65588.46738
427.886	65558.68415
428.074	65522.06938
428.262	65703.30422
428.45	65593.05211
428.638	65586.17528
428.826	65560.97409
429.014	65634.34731
429.202	65707.90725
429.39	65671.10373
429.577	65531.21879
429.765	65533.50659
429.953	65528.93117
430.141	65604.51711
430.329	65560.97409
430.516	65629.75605
430.704	65469.51511
430.892	65618.28108
431.079	65691.79989
431.267	65533.50659
431.455	65668.80508
431.643	65522.06938
431.83	65570.13564
432.018	65558.68415
432.205	65618.28108
432.393	65666.50661
432.581	65602.22375
432.768	65533.50659
432.956	65538.08273
433.143	65579.30007
433.331	65551.8154
433.518	65618.28108
433.706	65599.93057
433.893	65492.35334
434.081	65625.16552
434.268	65508.35057
434.456	65641.23557
434.643	65629.75605
434.83	65542.65957
435.018	65542.65957
435.205	65625.16552
435.392	65625.16552
435.58	65698.70193
435.767	65540.37106
435.954	65595.34475
436.142	65533.50659
436.329	65634.34731
436.516	65615.98663
436.703	65558.68415
436.891	65519.78246
437.078	65544.94826
437.265	65540.37106
437.452	65549.52618
437.639	65583.88336
437.827	65565.55451
438.014	65547.23713
438.201	65599.93057
438.388	65542.65957
438.575	65593.05211
438.762	65595.34475
438.949	65609.10437
439.136	65554.1048
439.323	65501.49355
439.51	65602.22375
439.697	65524.35646
439.884	65528.93117
440.071	65554.1048
440.258	65526.64373
440.445	65538.08273
440.632	65344.2154
440.819	65547.23713
441.006	65476.36474
441.193	65560.97409
441.38	65524.35646
441.566	65586.17528
441.753	65595.34475
441.94	65528.93117
442.127	65593.05211
442.314	65512.9228
442.5	65490.06872
442.687	65506.06472
442.874	65533.50659
443.061	65540.37106
443.247	65524.35646
443.434	65435.29059
443.621	65602.22375
443.807	65547.23713
443.994	65423.89112
444.181	65560.97409
444.367	65590.75965
444.554	65506.06472
444.74	65531.21879
444.927	65560.97409
445.114	65503.77905
445.3	65378.33642
445.487	65455.82059
445.673	65471.79815
445.86	65501.49355
446.046	65526.64373
446.233	65490.06872
446.419	65522.06938
446.605	65417.05352
446.792	65421.61175
446.978	65560.97409
447.165	65496.92309
447.351	65522.06938
447.537	65535.79457
447.724	65544.94826
447.91	65430.73028
448.096	65455.82059
448.283	65391.9956
448.469	65494.63813
448.655	65478.64829
448.841	65426.17067
449.028	65464.94957
449.214	65451.25715
449.4	65428.45039
449.586	65448.97569
449.773	65421.61175
449.959	65448.97569
450.145	65335.12293
450.331	65464.94957
450.517	65494.63813
450.703	65373.78473
450.889	65467.23226
451.075	65412.49598
451.261	65337.3958
451.447	65330.57772
451.633	65410.21747
451.819	65398.82751
452.005	65328.30536
452.191	65396.55003
452.377	65378.33642
452.563	65355.58481
452.749	65360.13377
452.935	65335.12293
453.121	65296.51013
453.307	65326.03318
453.493	65269.28327
453.679	65310.13261
453.865	65280.62486
454.05	65253.41203
454.236	65298.78012
454.422	65364.68341
454.608	65321.48931
454.794	65341.94203
454.979	65351.03654
455.165	65319.21764
455.351	65260.21299
455.537	65264.7478
455.722	65190.00819
455.908	65271.55125
456.094	65208.1104
456.279	65187.74615
456.465	65153.83512
456.65	65248.87889
456.836	65217.16545
457.022	65205.84705
457.207	65221.69396
457.393	65174.17734
457.578	65226.22313
457.764	65128.99023
457.949	65201.32084
458.135	65140.28094
458.32	65276.08772
458.506	65228.48796
458.691	65192.27039
458.877	65171.91645
459.062	65237.54894
459.248	65244.34642
459.433	65119.96057
459.618	65097.39764
459.804	65194.53276
459.989	65101.90894
460.174	65097.39764
460.36	65124.47508
460.545	65138.02248
460.73	65153.83512
460.915	65142.53957
461.101	65151.57569
461.286	65119.96057
461.471	65138.02248
461.656	65251.14538
461.842	65097.39764
462.027	65126.73258
462.212	65097.39764
462.397	65079.35881
462.582	65110.93347
462.767	65009.55414
462.952	65205.84705
463.138	65090.63188
463.323	65014.0531
463.508	65110.93347
463.693	65070.34322
463.878	65101.90894
464.063	65011.80354
464.248	65047.81534
464.433	65047.81534
464.618	65047.81534
464.803	65043.31167
464.988	65045.56343
465.173	64978.07887
465.357	65018.55269
465.542	65023.05291
465.727	64926.43541
465.912	64975.8318
466.097	65032.05523
466.282	65032.05523
466.467	64975.8318
466.651	64930.92292
466.836	64930.92292
467.021	65088.37695
467.206	64982.57347
467.391	65041.06006
467.575	65002.80687
467.76	64993.81269
467.945	64908.49152
468.129	64939.89977
468.314	64901.76508
468.499	65018.55269
468.683	64890.55739
468.868	64971.33814
469.053	64960.10667
469.237	64944.38911
469.422	64890.55739
469.606	64946.63401
469.791	65009.55414
469.975	64928.67909
470.16	64955.61517
470.344	64919.70531
470.529	64991.56453
470.713	64823.39056
470.898	64984.821
471.082	64946.63401
471.267	64993.81269
471.451	64978.07887
471.636	65095.14223
471.82	64984.821
472.004	64854.71822
472.189	64973.58489
472.373	65047.81534
472.557	65029.80441
472.742	65016.30282
472.926	65025.30326
473.11	65036.55733
473.295	64942.14436
473.479	64951.12428
473.663	64960.10667
473.847	65023.05291
474.031	65014.0531
474.216	65009.55414
474.4	65034.3062
474.584	65027.55376
474.768	64989.31654
474.952	64924.19189
475.136	64921.94852
475.32	65054.57205
475.505	64942.14436
475.689	64888.3163
475.873	64962.35266
476.057	64953.36965
476.241	65000.55809
476.425	64926.43541
476.609	64890.55739
476.793	64966.84509
476.977	65036.55733
477.161	64930.92292
477.345	64912.97658
477.529	65029.80441
477.713	64874.87299
477.896	65011.80354
478.08	64856.95704
478.264	64924.19189
478.448	64948.87907
478.632	64879.35349
478.816	65088.37695
478.999	64895.04001
479.183	64978.07887
479.367	64946.63401
479.551	64783.1551
479.735	64886.07537
479.918	64921.94852
480.102	64854.71822
480.286	64892.79862
480.469	64960.10667
480.653	64856.95704
480.837	64872.63297
481.02	64899.52324
481.204	64859.19601
481.388	64830.10116
481.571	64731.81274
481.755	64868.15338
481.938	64859.19601
482.122	64895.04001
482.305	64798.79651
482.489	64716.20216
482.673	64760.82279
482.856	64834.57564
483.04	64827.86415
483.223	64818.91758
483.406	64839.05072
483.59	64834.57564
483.773	64778.68746
483.957	64859.19601
484.14	64749.66215
484.323	64713.97266
484.507	64756.35809
484.69	64789.85768
484.874	64861.43512
485.057	64807.73772
485.24	64763.05536
485.423	64899.52324
485.607	64740.73628
485.79	64798.79651
485.973	64754.12597
486.156	64689.45773
486.34	64705.05612
486.523	64687.22997
486.706	64747.43046
486.889	64818.91758
487.072	64713.97266
487.256	64693.91369
487.439	64754.12597
487.622	64696.14188
487.805	64749.66215
487.988	64720.6616
488.171	64689.45773
488.354	64678.32036
488.537	64742.96752
488.72	64696.14188
488.903	64671.63966
489.086	64725.12162
489.269	64685.00235
489.452	64680.54754
489.635	64629.35852
489.818	64520.55317
490.001	64758.59037
490.184	64718.43181
490.367	64716.20216
490.55	64620.46379
490.732	64513.9025
490.915	64658.28214
491.098	64620.46379
491.281	64745.19892
491.464	64671.63966
491.647	64698.37022
491.829	64705.05612
492.012	64613.79422
492.195	64560.48342
492.378	64649.38
492.56	64505.03687
492.743	64527.20509
492.926	64498.38909
493.108	64638.25553
493.291	64618.24046
493.474	64480.66773
493.656	64496.17344
493.839	64440.82662
494.022	64507.25307
494.204	64436.40255
494.387	64462.95512
494.569	64600.45892
494.752	64469.59632
494.934	64493.95793
495.117	64480.66773
495.299	64518.33614
495.482	64449.67639
495.664	64403.23923
495.847	64485.09724
496.029	64524.98765
496.212	64273.08732
496.394	64496.17344
496.576	64449.67639
496.759	64542.73108
496.941	64365.69061
497.123	64211.47929
497.306	64518.33614
497.488	64431.97902
497.67	64500.60488
497.853	64493.95793
498.035	64367.89828
498.217	64301.72552
498.4	64372.31403
498.582	64522.77034
498.764	64447.46375
498.946	64376.73032
499.128	64389.98237
499.311	64418.71167
499.493	64511.68589
499.675	64378.93866
499.857	64341.41493
500.039	64303.92938
500.221	64341.41493
500.403	64321.56491
500.585	64220.27427
500.767	64281.89673
500.949	64321.56491
501.132	64345.8275
501.314	64378.93866
501.496	64237.87038
501.678	64451.88917
501.859	64308.33747
502.041	64299.5218
502.223	64299.5218
502.405	64332.59138
502.587	64235.67042
502.769	64259.87709
502.951	64257.67584
503.133	64286.30222
503.315	64341.41493
503.497	64314.9506
503.678	64306.13336
503.86	64394.40078
504.042	64189.50078
504.224	64220.27427
504.406	64279.69418
504.587	64334.79707
504.769	64288.50515
504.951	64264.27998
505.132	64372.31403
505.314	64306.13336
505.496	64268.68339
505.678	64334.79707
505.859	64317.15524
506.041	64268.68339
506.222	64284.09941
506.404	64279.69418
506.586	64292.91142
506.767	64229.0713
506.949	64337.00289
507.13	64286.30222
507.312	64295.11475
507.493	64154.36153
507.675	64270.88529
507.856	64268.68339
508.038	64359.06838
508.219	64337.00289
508.401	64334.79707
508.582	64240.07047
508.764	64277.49176
508.945	64244.47104
509.126	64332.59138
509.308	64314.9506
509.489	64299.5218
509.671	64356.86124
509.852	64264.27998
510.033	64356.86124
510.214	64330.38582
510.396	64370.10609
510.577	64436.40255
510.758	64253.27372
510.94	64264.27998
511.121	64299.5218
511.302	64301.72552
511.483	64337.00289
511.664	64273.08732
511.846	64385.56448
512.027	64303.92938
512.208	64367.89828
512.389	64354.65422
512.57	64270.88529
512.751	64308.33747
512.932	64290.70822
513.113	64200.48844
513.294	64323.76994
513.476	64310.54172
513.657	64343.62115
513.838	64418.71167
514.019	64279.69418
514.2	64359.06838
514.381	64303.92938
514.561	64284.09941
514.742	64381.14713
514.923	64312.74609
515.104	64295.11475
515.285	64339.20885
515.466	64370.10609
515.647	64407.65925
515.828	64262.07847
516.009	64306.13336
516.189	64381.14713
516.37	64416.50092
516.551	64389.98237
516.732	64389.98237
516.913	64354.65422
517.093	64383.35574
517.274	64389.98237
517.455	64231.27088
517.636	64303.92938
517.816	64295.11475
517.997	64319.36001
518.178	64325.9751
518.358	64425.34474
518.539	64352.44734
518.72	64334.79707
518.9	64323.76994
519.081	64337.00289
519.261	64286.30222
519.442	64202.68636
519.622	64319.36001
519.803	64323.76994
519.984	64273.08732
520.164	64350.2406
520.345	64330.38582
520.525	64317.15524
520.705	64372.31403
520.886	64268.68339
521.066	64482.88242
521.247	64339.20885
521.427	64343.62115
521.608	64185.1066
521.788	64370.10609
521.968	64171.92711
522.149	64387.77336
522.329	64310.54172
522.509	64418.71167
522.69	64370.10609
522.87	64398.81974
523.05	64425.34474
523.231	64405.44917
523.411	64365.69061
523.591	64312.74609
523.771	64394.40078
523.951	64308.33747
524.132	64290.70822
524.312	64341.41493
524.492	64370.10609
524.672	64314.9506
524.852	64290.70822
525.032	64352.44734
525.213	64319.36001
525.393	64251.07286
525.573	64427.55603
525.753	64279.69418
525.933	64306.13336
526.113	64312.74609
526.293	64416.50092
526.473	64385.56448
526.653	64240.07047
526.833	64376.73032
527.013	64434.19072
527.193	64350.2406
527.373	64365.69061
527.553	64339.20885
527.733	64308.33747
527.913	64396.61019
528.092	64536.07625
528.272	64321.56491
528.452	64378.93866
528.632	64458.52833
528.812	64363.48307
528.992	64312.74609
529.171	64345.8275
529.351	64440.82662
529.531	64434.19072
529.711	64330.38582
529.89	64431.97902
530.07	64323.76994
530.25	64237.87038
530.43	64242.27069
530.609	64365.69061
530.789	64348.03398
530.969	64337.00289
531.148	64405.44917
531.328	64443.03886
531.507	64396.61019
531.687	64310.54172
531.867	64436.40255
532.046	64295.11475
532.226	64401.02942
532.405	64339.20885
532.585	64361.27566
532.764	64383.35574
532.944	64237.87038
533.123	64365.69061
533.303	64416.50092
533.482	64240.07047
533.662	64392.19151
533.841	64334.79707
534.021	64299.5218
534.2	64387.77336
534.379	64431.97902
534.559	64370.10609
534.738	64330.38582
534.917	64471.81033
535.097	64361.27566
535.276	64356.86124
535.455	64314.9506
535.635	64449.67639
535.814	64394.40078
535.993	64325.9751
536.172	64458.52833
536.352	64420.92256
536.531	64440.82662
536.71	64348.03398
536.889	64367.89828
537.068	64407.65925
537.248	64427.55603
537.427	64290.70822
537.606	64361.27566
537.785	64365.69061
537.964	64381.14713
538.143	64445.25124
538.322	64396.61019
538.501	64363.48307
538.68	64418.71167
538.859	64314.9506
539.038	64454.10209
539.217	64454.10209
539.396	64522.77034
539.575	64378.93866
539.754	64361.27566
539.933	64325.9751
540.112	64547.16833
540.291	64385.56448
540.47	64387.77336
540.649	64389.98237
540.828	64547.16833
541.007	64356.86124
541.186	64465.16872
541.364	64365.69061
541.543	64447.46375
541.722	64403.23923
541.901	64440.82662
542.08	64290.70822
542.258	64328.1804
542.437	64471.81033
542.616	64337.00289
542.795	64491.74255
542.973	64447.46375
543.152	64456.31515
543.331	64434.19072
543.509	64480.66773
543.688	64361.27566
543.867	64458.52833
544.045	64471.81033
544.224	64321.56491
544.402	64062.27353
544.581	64425.34474
544.76	64522.77034
544.938	64416.50092
545.117	64385.56448
545.295	64434.19072
545.474	64431.97902
545.652	64507.25307
545.831	64458.52833
546.009	64328.1804
546.188	64431.97902
546.366	64445.25124
546.544	64423.13358
546.723	64418.71167
546.901	64412.07982
547.08	64354.65422
547.258	64465.16872
547.436	64462.95512
547.615	64511.68589
547.793	64438.61452
547.971	64420.92256
548.15	64436.40255
548.328	64383.35574
548.506	64321.56491
548.684	64295.11475
548.863	64456.31515
549.041	64487.31221
549.219	64544.94964
549.397	64407.65925
549.576	64458.52833
549.754	64416.50092
549.932	64443.03886
550.11	64485.09724
550.288	64520.55317
550.466	64607.12594
550.644	64383.35574
550.822	64480.66773
551.001	64520.55317
551.179	64573.80353
551.357	64509.46941
551.535	64451.88917
551.713	64511.68589
551.891	64516.11925
552.069	64560.48342
552.247	64520.55317
552.425	64556.0445
552.603	64556.0445
552.781	64533.85826
552.958	64564.9229
553.136	64542.73108
553.314	64658.28214
553.492	64613.79422
553.67	64640.48014
553.848	64653.83079
554.026	64751.89398
554.204	64734.0434
554.381	64673.86641
554.559	64736.27422
554.737	64809.97339
554.915	64742.96752
555.092	64700.59871
555.27	64774.22041
555.448	64736.27422
555.626	64787.62334
555.803	64874.87299
555.981	64702.82734
556.159	64832.33833
556.336	64841.28849
556.514	64904.00707
556.692	64859.19601
556.869	64832.33833
557.047	64827.86415
557.224	64859.19601
557.402	64874.87299
557.58	64798.79651
557.757	64912.97658
557.935	65011.80354
558.112	64917.46224
558.29	64906.24922
558.467	65011.80354
558.645	65014.0531
558.822	65027.55376
559	65000.55809
559.177	64975.8318
559.354	64951.12428
559.532	64957.86084
559.709	64989.31654
559.887	64951.12428
560.064	65052.31965
560.241	64928.67909
560.419	64948.87907
560.596	64928.67909
560.773	64921.94852
560.951	64904.00707
561.128	64787.62334
561.305	65016.30282
561.482	64957.86084
561.66	64906.24922
561.837	64901.76508
562.014	64951.12428
562.191	65025.30326
562.368	64971.33814
562.546	64904.00707
562.723	65005.0558
562.9	64973.58489
563.077	64899.52324
563.254	64996.061
563.431	64964.59879
563.608	64877.11317
563.785	64993.81269
563.962	64933.1669
564.139	65023.05291
564.317	64906.24922
564.494	65038.80862
564.671	64841.28849
564.848	64937.65532
565.025	64989.31654
565.201	65016.30282
565.378	64946.63401
565.555	64944.38911
565.732	64980.32609
565.909	64989.31654
566.086	64971.33814
566.263	65020.80272
566.44	64975.8318
566.617	65016.30282
566.794	64937.65532
566.97	65000.55809
567.147	65070.34322
567.324	64973.58489
567.501	65034.3062
567.678	64971.33814
567.854	64993.81269
568.031	65104.16484
568.208	64973.58489
568.384	65038.80862
568.561	65014.0531
568.738	65038.80862
568.915	65016.30282
569.091	65090.63188
569.268	65050.06742
569.444	65099.65321
569.621	65070.34322
569.798	65097.39764
569.974	65041.06006
570.151	65036.55733
570.327	65052.31965
570.504	65025.30326
570.681	65119.96057
570.857	65088.37695
571.034	65097.39764
571.21	65047.81534
571.387	65194.53276
571.563	65167.39514
571.739	65005.0558
571.916	65217.16545
572.092	65142.53957
572.269	65090.63188
572.445	65104.16484
572.622	65151.57569
572.798	65090.63188
572.974	65144.79835
573.151	65201.32084
573.327	65142.53957
573.503	65041.06006
573.68	65203.58387
573.856	65196.79529
574.032	65201.32084
574.208	65081.61311
574.385	65106.42089
574.561	65219.42962
574.737	65192.27039
574.913	65088.37695
575.089	65192.27039
575.266	65196.79529
575.442	65208.1104
575.618	65047.81534
575.794	65169.65571
575.97	65178.69963
576.146	65108.6771
576.322	65174.17734
576.499	65065.83638
576.675	65083.86756
576.851	65086.12218
577.027	65009.55414
577.203	65142.53957
577.379	65183.22256
577.555	65138.02248
577.731	65092.88698
577.907	64767.52094
578.083	65047.81534
578.259	65119.96057
578.435	65095.14223
578.611	64975.8318
578.786	64991.56453
578.962	65043.31167
579.138	65156.09472
579.314	65047.81534
579.49	65119.96057
579.666	65023.05291
579.842	65099.65321
580.017	65099.65321
580.193	65086.12218
580.369	65034.3062
580.545	65059.0773
580.72	64964.59879
580.896	65095.14223
581.072	64984.821
581.248	65032.05523
581.423	64960.10667
581.599	65063.5832
581.775	65023.05291
581.95	65025.30326
582.126	65052.31965
582.302	64955.61517
582.477	65018.55269
582.653	65079.35881
582.829	65063.5832
583.004	65153.83512
583.18	65050.06742
583.355	65088.37695
583.531	65018.55269
583.706	64996.061
583.882	65088.37695
584.057	65171.91645
584.233	65034.3062
584.408	64935.41103
584.584	65054.57205
584.759	65117.70355
584.935	65117.70355
585.11	65104.16484
585.285	65138.02248
585.461	65210.37392
585.636	65110.93347
585.812	65128.99023
585.987	65196.79529
586.162	65183.22256
586.338	65124.47508
586.513	65219.42962
586.688	65280.62486
586.863	65158.35448
587.039	65214.90144
587.214	65190.00819
587.389	65185.48428
587.564	65226.22313
587.74	65183.22256
587.915	65351.03654
588.09	65296.51013
588.265	65233.01812
588.44	65310.13261
588.615	65294.2403
588.791	65282.89368
588.966	65337.3958
589.141	65355.58481
589.316	65276.08772
589.491	65289.70115
589.666	65260.21299
589.841	65223.95846
590.016	65335.12293
590.191	65251.14538
590.366	65382.88879
590.541	65401.10516
590.716	65351.03654
590.891	65328.30536
591.066	65423.89112
591.241	65398.82751
591.416	65417.05352
591.591	65405.66097
591.766	65405.66097
591.941	65519.78246
592.116	65533.50659
592.29	65414.77466
592.465	65462.66707
592.64	65577.0087
592.815	65510.63659
592.99	65560.97409
593.165	65519.78246
593.339	65542.65957
593.514	65512.9228
593.689	65435.29059
593.864	65517.49573
594.038	65544.94826
594.213	65437.57101
594.388	65519.78246
594.562	65496.92309
594.737	65435.29059
594.912	65515.20917
595.086	65572.42648
595.261	65524.35646
595.436	65453.53878
595.61	65474.08135
595.785	65467.23226
595.959	65462.66707
596.134	65503.77905
596.309	65501.49355
596.483	65508.35057
596.658	65496.92309
596.832	65524.35646
597.007	65398.82751
597.181	65556.39439
597.356	65471.79815
597.53	65560.97409
597.704	65533.50659
597.879	65492.35334
598.053	65496.92309
598.228	65410.21747
598.402	65407.93913
598.576	65508.35057
598.751	65423.89112
598.925	65483.21594
599.1	65483.21594
599.274	65528.93117
599.448	65494.63813
599.622	65401.10516
599.797	65478.64829
599.971	65478.64829
600.145	65355.58481
600.32	65451.25715
600.494	65476.36474
600.668	65428.45039
600.842	65417.05352
601.016	65526.64373
601.191	65428.45039
601.365	65219.42962
601.539	65448.97569
601.713	65483.21594
601.887	65391.9956
602.061	65508.35057
602.235	65430.73028
602.409	65501.49355
602.583	65439.8516
602.758	65563.26421
602.932	65501.49355
603.106	65565.55451
603.28	65515.20917
603.454	65469.51511
603.628	65423.89112
603.802	65519.78246
603.976	65503.77905
604.149	65485.50002
604.323	65439.8516
604.497	65517.49573
604.671	65435.29059
604.845	65469.51511
605.019	65508.35057
605.193	65519.78246
605.367	65433.01035
605.541	65464.94957
605.714	65410.21747
605.888	65419.33254
606.062	65490.06872
606.236	65593.05211
606.41	65376.06049
606.583	65501.49355
606.757	65524.35646
606.931	65469.51511
607.105	65503.77905
607.278	65508.35057
607.452	65554.1048
607.626	65419.33254
607.799	65503.77905
607.973	65522.06938
608.147	65462.66707
608.32	65519.78246
608.494	65474.08135
608.668	65501.49355
608.841	65401.10516
609.015	65412.49598
609.188	65464.94957
609.362	65574.7175
609.535	65487.78429
609.709	65512.9228
609.882	65476.36474
610.056	65448.97569
610.229	65478.64829
610.403	65480.93203
610.576	65376.06049
610.75	65448.97569
610.923	65478.64829
611.097	65535.79457
611.27	65403.38298
611.443	65469.51511
611.617	65570.13564
611.79	65574.7175
611.963	65467.23226
612.137	65478.64829
612.31	65474.08135
612.483	65501.49355
612.657	65485.50002
612.83	65542.65957
613.003	65540.37106
613.177	65501.49355
613.35	65519.78246
613.523	65478.64829
613.696	65455.82059
613.869	65593.05211
614.043	65430.73028
614.216	65478.64829
614.389	65517.49573
614.562	65439.8516
614.735	65494.63813
614.908	65503.77905
615.082	65437.57101
615.255	65483.21594
615.428	65446.69441
615.601	65524.35646
615.774	65496.92309
615.947	65451.25715
616.12	65355.58481
616.293	65391.9956
616.466	65405.66097
616.639	65423.89112
616.812	65455.82059
616.985	65373.78473
617.158	65453.53878
617.331	65471.79815
617.504	65451.25715
617.677	65528.93117
617.85	65483.21594
618.022	65496.92309
618.195	65478.64829
618.368	65414.77466
618.541	65401.10516
618.714	65480.93203
618.887	65469.51511
619.059	65435.29059
619.232	65478.64829
619.405	65321.48931
619.578	65351.03654
619.751	65460.38473
619.923	65437.57101
620.096	65369.23373
620.269	65389.71864
620.441	65439.8516
620.614	65480.93203
620.787	65407.93913
620.96	65421.61175
621.132	65326.03318
621.305	65298.78012
621.477	65355.58481
621.65	65442.13236
621.823	65455.82059
621.995	65351.03654
622.168	65360.13377
622.34	65362.4085
622.513	65373.78473
622.685	65369.23373
622.858	65351.03654
623.03	65410.21747
623.203	65437.57101
623.375	65389.71864
623.548	65430.73028
623.72	65362.4085
623.893	65364.68341
624.065	65387.44185
624.238	65380.61252
624.41	65480.93203
624.582	65319.21764
624.755	65396.55003
624.927	65373.78473
625.1	65366.95848
625.272	65439.8516
625.444	65332.85024
625.617	65246.61257
625.789	65323.76116
625.961	65385.16524
626.133	65321.48931
626.306	65307.86178
626.478	65307.86178
626.65	65291.97064
626.822	65373.78473
626.995	65271.55125
627.167	65282.89368
627.339	65353.31059
627.511	65244.34642
627.683	65282.89368
627.855	65253.41203
628.027	65332.85024
628.2	65267.01545
628.372	65291.97064
628.544	65294.2403
628.716	65291.97064
628.888	65269.28327
629.06	65205.84705
629.232	65369.23373
629.404	65294.2403
629.576	65210.37392
629.748	65310.13261
629.92	65171.91645
630.092	65160.6144
630.264	65257.94584
630.436	65335.12293
630.608	65267.01545
630.78	65262.48031
630.952	65305.59111
631.124	65228.48796
631.295	65251.14538
631.467	65303.32061
631.639	65219.42962
631.811	65298.78012
631.983	65278.35621
632.155	65278.35621
632.326	65273.8194
632.498	65269.28327
632.67	65278.35621
632.842	65312.40361
633.014	65257.94584
633.185	65201.32084
633.357	65289.70115
633.529	65162.87449
633.7	65196.79529
633.872	65312.40361
634.044	65314.67479
634.215	65203.58387
634.387	65278.35621
634.559	65355.58481
634.73	65298.78012
634.902	65346.48894
635.074	65282.89368
635.245	65273.8194
635.417	65296.51013
635.588	65210.37392
635.76	65355.58481
635.931	65341.94203
636.103	65355.58481
636.274	65251.14538
636.446	65303.32061
636.617	65237.54894
636.789	65330.57772
636.96	65323.76116
637.132	65344.2154
637.303	65332.85024
637.474	65364.68341
637.646	65282.89368
637.817	65357.8592
637.989	65310.13261
638.16	65369.23373
638.331	65391.9956
638.503	65255.67885
638.674	65287.43183
638.845	65391.9956
639.017	65303.32061
639.188	65305.59111
639.359	65394.27273
639.53	65380.61252
639.702	65310.13261
639.873	65389.71864
640.044	65353.31059
640.215	65364.68341
640.387	65264.7478
640.558	65246.61257
640.729	65219.42962
640.9	65248.87889
641.071	65260.21299
641.242	65264.7478
641.413	65276.08772
641.585	65321.48931
641.756	65248.87889
641.927	65376.06049
642.098	65301.05028
642.269	65298.78012
642.44	65364.68341
642.611	65291.97064
642.782	65298.78012
642.953	65208.1104
643.124	65251.14538
643.295	65373.78473
643.466	65239.8146
643.637	65303.32061
643.808	65285.16267
643.979	65217.16545
644.15	65190.00819
644.32	65244.34642
644.491	65262.48031
644.662	65410.21747
644.833	65287.43183
645.004	65253.41203
645.175	65296.51013
645.346	65233.01812
645.516	65326.03318
645.687	65278.35621
645.858	65280.62486
646.029	65230.75296
646.199	65312.40361
646.37	65273.8194
646.541	65337.3958
646.712	65210.37392
646.882	65257.94584
647.053	65289.70115
647.224	65285.16267
647.394	65271.55125
647.565	65276.08772
647.736	65314.67479
647.906	65348.76266
648.077	65276.08772
648.248	65346.48894
648.418	65319.21764
648.589	65362.4085
648.759	65303.32061
648.93	65305.59111
649.1	65364.68341
649.271	65233.01812
649.441	65242.08043
649.612	65314.67479
649.782	65239.8146
649.953	65221.69396
650.123	65273.8194
650.294	65214.90144
650.464	65255.67885
650.635	64962.35266
650.805	65278.35621
650.975	65151.57569
651.146	65314.67479
651.316	65269.28327
651.487	65298.78012
651.657	65301.05028
651.827	65233.01812
651.998	65355.58481
652.168	65242.08043
652.338	65305.59111
652.508	65371.50914
652.679	65294.2403
652.849	65214.90144
653.019	65251.14538
653.189	65246.61257
653.36	65260.21299
653.53	65355.58481
653.7	65262.48031
653.87	65376.06049
654.04	65310.13261
654.211	65328.30536
654.381	65233.01812
654.551	65346.48894
654.721	65255.67885
654.891	65330.57772
655.061	65253.41203
655.231	65364.68341
655.401	65378.33642
655.571	65344.2154
655.741	65262.48031
655.911	65310.13261
656.081	65248.87889
656.251	65380.61252
656.421	65276.08772
656.591	65371.50914
656.761	65287.43183
656.931	65412.49598
657.101	65378.33642
657.271	65323.76116
657.441	65301.05028
657.611	65414.77466
657.781	65305.59111
657.951	65348.76266
658.121	65287.43183
658.291	65282.89368
658.46	65389.71864
658.63	65316.94613
658.8	65344.2154
658.97	65312.40361
659.14	65260.21299
659.309	65339.66883
659.479	65294.2403
659.649	65369.23373
659.819	65285.16267
659.988	65405.66097
660.158	65437.57101
660.328	65316.94613
660.497	65380.61252
660.667	65366.95848
660.837	65316.94613
661.006	65296.51013
661.176	65455.82059
661.346	65346.48894
661.515	65387.44185
661.685	65391.9956
661.854	65348.76266
662.024	65376.06049
662.194	65337.3958
662.363	65326.03318
662.533	65378.33642
662.702	65474.08135
662.872	65423.89112
663.041	65314.67479
663.211	65460.38473
663.38	65517.49573
663.55	65380.61252
663.719	65376.06049
663.889	65499.20823
664.058	65455.82059
664.227	65401.10516
664.397	65387.44185
664.566	65385.16524
664.735	65474.08135
664.905	65435.29059
665.074	65435.29059
665.244	65419.33254
665.413	65483.21594
665.582	65396.55003
665.751	65430.73028
665.921	65433.01035
666.09	65442.13236
666.259	65394.27273
666.428	65437.57101
666.598	65442.13236
666.767	65385.16524
666.936	65394.27273
667.105	65373.78473
667.275	65426.17067
667.444	65423.89112
667.613	65330.57772
667.782	65483.21594
667.951	65387.44185
668.12	65414.77466
668.289	65426.17067
668.458	65378.33642
668.628	65480.93203
668.797	65448.97569
668.966	65464.94957
669.135	65346.48894
669.304	65417.05352
669.473	65417.05352
669.642	65444.4133
669.811	65446.69441
669.98	65398.82751
670.149	65376.06049
670.318	65492.35334
670.487	65460.38473
670.656	65405.66097
670.824	65451.25715
670.993	65501.49355
671.162	65403.38298
671.331	65389.71864
671.5	65453.53878
671.669	65474.08135
671.838	65490.06872
672.007	65423.89112
672.175	65439.8516
672.344	65451.25715
672.513	65310.13261
672.682	65485.50002
672.85	65401.10516
673.019	65369.23373
673.188	65344.2154
673.357	65398.82751
673.525	65490.06872
673.694	65490.06872
673.863	65439.8516
674.032	65401.10516
674.2	65467.23226
674.369	65467.23226
674.537	65410.21747
674.706	65506.06472
674.875	65458.10258
675.043	65437.57101
675.212	65423.89112
675.381	65423.89112
675.549	65478.64829
675.718	65496.92309
675.886	65448.97569
676.055	65519.78246
676.223	65492.35334
676.392	65428.45039
676.56	65442.13236
676.729	65453.53878
676.897	65515.20917
677.066	65478.64829
677.234	65476.36474
677.403	65579.30007
677.571	65483.21594
677.739	65474.08135
677.908	65496.92309
678.076	65448.97569
678.244	65462.66707
678.413	65512.9228
678.581	65444.4133
678.75	65499.20823
678.918	65503.77905
679.086	65487.78429
679.254	65581.59163
679.423	65391.9956
679.591	65487.78429
679.759	65483.21594
679.928	65510.63659
680.096	65462.66707
680.264	65496.92309
680.432	65458.10258
680.6	65485.50002
680.769	65437.57101
680.937	65538.08273
681.105	65437.57101
681.273	65435.29059
681.441	65490.06872
681.609	65382.88879
681.777	65490.06872
681.945	65455.82059
682.114	65512.9228
682.282	65464.94957
682.45	65496.92309
682.618	65524.35646
682.786	65581.59163
682.954	65476.36474
683.122	65305.59111
683.29	65403.38298
683.458	65510.63659
683.626	65506.06472
683.794	65476.36474
683.962	65595.34475
684.13	65421.61175
684.298	65535.79457
684.465	65469.51511
684.633	65524.35646
684.801	65538.08273
684.969	65512.9228
685.137	65433.01035
685.305	65533.50659
685.473	65474.08135
685.64	65533.50659
685.808	65611.39828
685.976	65405.66097
686.144	65560.97409
686.312	65391.9956
686.479	65554.1048
686.647	65544.94826
686.815	65503.77905
686.983	65522.06938
687.15	65485.50002
687.318	65519.78246
687.486	65487.78429
687.653	65474.08135
687.821	65526.64373
687.989	65476.36474
688.156	65567.84499
688.324	65542.65957
688.492	65485.50002
688.659	65629.75605
688.827	65458.10258
688.994	65551.8154
689.162	65533.50659
689.329	65426.17067
689.497	65554.1048
689.665	65595.34475
689.832	65483.21594
690	65464.94957
690.167	65563.26421
690.335	65524.35646
690.502	65547.23713
690.669	65483.21594
690.837	65526.64373
691.004	65435.29059
691.172	65433.01035
691.339	65417.05352
691.507	65586.17528
691.674	65551.8154
691.841	65560.97409
692.009	65599.93057
692.176	65515.20917
692.343	65560.97409
692.511	65522.06938
692.678	65528.93117
692.845	65515.20917
693.013	65570.13564
693.18	65480.93203
693.347	65501.49355
693.514	65604.51711
693.682	65503.77905
693.849	65549.52618
694.016	65528.93117
694.183	65460.38473
694.35	65643.53202
694.518	65556.39439
694.685	65558.68415
694.852	65554.1048
695.019	65648.12548
695.186	65517.49573
695.353	65439.8516
695.52	65494.63813
695.687	65490.06872
695.855	65508.35057
696.022	65506.06472
696.189	65551.8154
696.356	65570.13564
696.523	65620.57571
696.69	65437.57101
696.857	65648.12548
697.024	65476.36474
697.191	65567.84499
697.358	65478.64829
697.525	65460.38473
697.692	65510.63659
697.858	65586.17528
698.025	65494.63813
698.192	65499.20823
698.359	65599.93057
698.526	65510.63659
698.693	65517.49573
698.86	65560.97409
699.027	65540.37106
699.193	65606.81065
699.36	65560.97409
699.527	65572.42648
699.694	65595.34475
699.861	65595.34475
700.027	65437.57101
700.194	65483.21594
700.361	65499.20823
700.528	65490.06872
700.694	65544.94826
700.861	65581.59163
701.028	65512.9228
701.195	65512.9228
701.361	65503.77905
701.528	65551.8154
701.694	65494.63813
701.861	65620.57571
702.028	65421.61175
702.194	65480.93203
702.361	65551.8154
702.528	65549.52618
702.694	65542.65957
702.861	65396.55003
703.027	65510.63659
703.194	65567.84499
703.36	65512.9228
703.527	65611.39828
703.693	65458.10258
703.86	65446.69441
704.026	65535.79457
704.193	65687.19945
704.359	65533.50659
704.526	65583.88336
