Data from USB4F034991__1__10-38-56-679.txt Node

Date: Tue Sep 23 10:38:56 EDT 2025
User: brett
Spectrometer: USB4F03499
Trigger mode: 4
Integration Time (sec): 4.000000E-5
Scans to average: 1
Electric dark correction enabled: true
Nonlinearity correction enabled: true
Boxcar width: 0
XAxis mode: Wavelengths
Number of Pixels in Spectrum: 3648
>>>>>Begin Spectral Data<<<<<
320	0
320.225	0
320.449	0
320.674	0
320.898	0
321.123	0
321.347	0
321.572	0
321.796	0
322.021	0
322.245	0
322.469	0
322.694	0
322.918	0
323.143	0
323.367	0
323.591	0
323.815	0
324.04	0
324.264	0
324.488	0
324.712	0
324.936	0
325.161	0
325.385	0
325.609	0
325.833	0
326.057	0
326.281	0
326.505	0
326.729	0
326.953	0
327.177	0
327.401	0
327.625	0
327.849	0
328.073	0
328.297	0
328.521	0
328.744	0
328.968	0
329.192	0
329.416	0
329.64	0
329.863	0
330.087	0
330.311	0
330.535	0
330.758	0
330.982	0
331.205	0
331.429	0
331.653	0
331.876	0
332.1	0
332.323	0
332.547	0
332.77	0
332.994	0
333.217	0
333.441	0
333.664	0
333.887	0
334.111	0
334.334	0
334.557	0
334.781	0
335.004	0
335.227	0
335.451	0
335.674	0
335.897	0
336.12	0
336.343	0
336.567	0
336.79	0
337.013	0
337.236	0
337.459	0
337.682	0
337.905	0
338.128	0
338.351	0
338.574	0
338.797	0
339.02	0
339.243	0
339.466	0
339.689	0
339.911	0
340.134	0
340.357	0
340.58	0
340.803	0
341.025	0
341.248	0
341.471	0
341.694	0
341.916	0
342.139	0
342.362	0
342.584	0
342.807	0
343.029	0
343.252	0
343.475	0
343.697	0
343.92	0
344.142	11952.8745
344.365	18322.13404
344.587	6545.52601
344.809	6545.52601
345.032	6549.48239
345.254	6545.52601
345.477	6525.79442
345.699	6519.89125
345.921	6535.64975
346.144	6543.54908
346.366	6523.82586
346.588	6529.73404
346.81	6537.62332
347.033	6527.76381
347.255	6500.2681
347.477	6533.67701
347.699	6535.64975
347.921	6549.48239
348.144	6539.59773
348.366	6537.62332
348.588	6539.59773
348.81	6529.73404
349.032	6515.95997
349.254	6521.85814
349.476	6547.50378
349.698	6531.70511
349.92	6513.99558
350.142	6537.62332
350.364	6537.62332
350.586	6555.42327
350.808	6531.70511
351.029	6543.54908
351.251	6496.35343
351.473	6547.50378
351.695	6539.59773
351.917	6531.70511
352.139	6529.73404
352.36	6521.85814
352.582	6545.52601
352.804	6539.59773
353.026	6515.95997
353.247	6515.95997
353.469	6537.62332
353.691	6513.99558
353.912	6523.82586
354.134	6525.79442
354.355	6535.64975
354.577	6521.85814
354.798	6545.52601
355.02	6527.76381
355.242	6527.76381
355.463	6539.59773
355.684	6539.59773
355.906	6545.52601
356.127	6543.54908
356.349	6527.76381
356.57	6523.82586
356.792	6559.38807
357.013	6504.18609
357.234	6515.95997
357.456	6537.62332
357.677	6539.59773
357.898	6537.62332
358.119	6537.62332
358.341	6541.57299
358.562	6525.79442
358.783	6557.40525
359.004	6523.82586
359.225	6545.52601
359.447	6535.64975
359.668	6533.67701
359.889	6513.99558
360.11	6531.70511
360.331	6531.70511
360.552	6555.42327
360.773	6529.73404
360.994	6523.82586
361.215	6559.38807
361.436	6529.73404
361.657	6535.64975
361.878	6527.76381
362.099	6549.48239
362.32	6539.59773
362.54	6537.62332
362.761	6549.48239
362.982	6531.70511
363.203	6525.79442
363.424	6563.35625
363.645	6502.22668
363.865	6537.62332
364.086	6523.82586
364.307	6571.30274
364.527	6537.62332
364.748	6541.57299
364.969	6523.82586
365.189	6529.73404
365.41	6553.44214
365.631	6539.59773
365.851	6533.67701
366.072	6553.44214
366.292	6569.31485
366.513	6551.46184
366.733	6557.40525
366.954	6523.82586
367.174	6547.50378
367.395	6529.73404
367.615	6549.48239
367.836	6506.14633
368.056	6525.79442
368.276	6545.52601
368.497	6529.73404
368.717	6512.03202
368.937	6523.82586
369.158	6559.38807
369.378	6535.64975
369.598	6537.62332
369.818	6523.82586
370.038	6549.48239
370.259	6549.48239
370.479	6559.38807
370.699	6545.52601
370.919	6555.42327
371.139	6529.73404
371.359	6523.82586
371.579	6543.54908
371.799	6523.82586
372.02	6519.89125
372.24	6567.3278
372.46	6541.57299
372.68	6557.40525
372.899	6551.46184
373.119	6569.31485
373.339	6545.52601
373.559	6541.57299
373.779	6515.95997
373.999	6557.40525
374.219	6555.42327
374.439	6559.38807
374.658	6531.70511
374.878	6543.54908
375.098	6535.64975
375.318	6547.50378
375.538	6567.3278
375.757	6559.38807
375.977	6553.44214
376.197	6543.54908
376.416	6547.50378
376.636	6547.50378
376.855	6579.26278
377.075	6555.42327
377.295	6533.67701
377.514	6553.44214
377.734	6575.28106
377.953	6557.40525
378.173	6531.70511
378.392	6567.3278
378.612	6545.52601
378.831	6561.37174
379.051	6563.35625
379.27	6569.31485
379.489	6583.24789
379.709	6551.46184
379.928	6551.46184
380.147	6555.42327
380.367	6563.35625
380.586	6575.28106
380.805	6577.2715
381.024	6557.40525
381.244	6567.3278
381.463	6565.3416
381.682	6547.50378
381.901	6553.44214
382.12	6547.50378
382.34	6571.30274
382.559	6573.29148
382.778	6571.30274
382.997	6555.42327
383.216	6579.26278
383.435	6569.31485
383.654	6539.59773
383.873	6581.25491
384.092	6555.42327
384.311	6543.54908
384.53	6567.3278
384.749	6573.29148
384.968	6565.3416
385.187	6557.40525
385.405	6539.59773
385.624	6545.52601
385.843	6563.35625
386.062	6563.35625
386.281	6565.3416
386.499	6545.52601
386.718	6557.40525
386.937	6541.57299
387.156	6563.35625
387.374	6541.57299
387.593	6583.24789
387.812	6575.28106
388.03	6571.30274
388.249	6551.46184
388.467	6589.23193
388.686	6545.52601
388.905	6563.35625
389.123	6587.2364
389.342	6557.40525
389.56	6561.37174
389.779	6571.30274
389.997	6561.37174
390.216	6563.35625
390.434	6547.50378
390.652	6595.22363
390.871	6557.40525
391.089	6555.42327
391.307	6577.2715
391.526	6573.29148
391.744	6557.40525
391.962	6561.37174
392.181	6563.35625
392.399	6567.3278
392.617	6577.2715
392.835	6587.2364
393.054	6557.40525
393.272	6577.2715
393.49	6565.3416
393.708	6575.28106
393.926	6555.42327
394.144	6565.3416
394.362	6535.64975
394.58	6559.38807
394.798	6555.42327
395.016	6565.3416
395.234	6583.24789
395.452	6571.30274
395.67	6569.31485
395.888	6569.31485
396.106	6571.30274
396.324	6603.22452
396.542	6581.25491
396.76	6565.3416
396.978	6573.29148
397.196	6549.48239
397.413	6589.23193
397.631	6557.40525
397.849	6571.30274
398.067	6575.28106
398.284	6575.28106
398.502	6581.25491
398.72	6555.42327
398.938	6565.3416
399.155	6583.24789
399.373	6561.37174
399.59	6591.22831
399.808	6583.24789
400.026	6577.2715
400.243	6591.22831
400.461	6581.25491
400.678	6587.2364
400.896	6555.42327
401.113	6581.25491
401.331	6579.26278
401.548	6567.3278
401.766	6591.22831
401.983	6581.25491
402.2	6591.22831
402.418	6559.38807
402.635	6553.44214
402.853	6591.22831
403.07	6595.22363
403.287	6585.24172
403.504	6579.26278
403.722	6551.46184
403.939	6575.28106
404.156	6577.2715
404.373	6597.22258
404.591	6587.2364
404.808	6563.35625
405.025	6585.24172
405.242	6563.35625
405.459	6579.26278
405.676	6579.26278
405.893	6559.38807
406.11	6563.35625
406.327	6581.25491
406.544	6557.40525
406.761	6579.26278
406.978	6573.29148
407.195	6577.2715
407.412	6583.24789
407.629	6573.29148
407.846	6585.24172
408.063	6547.50378
408.28	6571.30274
408.497	6591.22831
408.713	6603.22452
408.93	6573.29148
409.147	6571.30274
409.364	6595.22363
409.58	6583.24789
409.797	6601.22302
410.014	6577.2715
410.231	6561.37174
410.447	6571.30274
410.664	6571.30274
410.881	6589.23193
411.097	6589.23193
411.314	6579.26278
411.53	6587.2364
411.747	6585.24172
411.963	6607.23009
412.18	6573.29148
412.396	6597.22258
412.613	6591.22831
412.829	6617.25901
413.046	6621.27659
413.262	6581.25491
413.479	6601.22302
413.695	6585.24172
413.911	6587.2364
414.128	6601.22302
414.344	6599.22237
414.56	6583.24789
414.777	6593.22555
414.993	6593.22555
415.209	6595.22363
415.426	6599.22237
415.642	6593.22555
415.858	6623.28667
416.074	6615.25151
416.29	6601.22302
416.506	6645.45444
416.723	6619.26737
416.939	6607.23009
417.155	6593.22555
417.371	6597.22258
417.587	6585.24172
417.803	6595.22363
418.019	6613.24487
418.235	6605.22688
418.451	6641.41616
418.667	6611.23909
418.883	6617.25901
419.099	6631.33559
419.315	6629.32207
419.53	6605.22688
419.746	6625.29761
419.962	6571.30274
420.178	6621.27659
420.394	6621.27659
420.61	6623.28667
420.825	6617.25901
421.041	6595.22363
421.257	6623.28667
421.473	6613.24487
421.688	6619.26737
421.904	6601.22302
422.12	6607.23009
422.335	6647.47488
422.551	6623.28667
422.766	6637.38134
422.982	6599.22237
423.198	6643.43487
423.413	6613.24487
423.629	6635.36523
423.844	6639.39832
424.06	6633.34998
424.275	6637.38134
424.49	6655.56531
424.706	6633.34998
424.921	6643.43487
425.137	6657.59009
425.352	6649.49618
425.567	6631.33559
425.783	6617.25901
425.998	6621.27659
426.213	6625.29761
426.429	6623.28667
426.644	6643.43487
426.859	6663.66964
427.074	6637.38134
427.29	6631.33559
427.505	6627.30941
427.72	6635.36523
427.935	6631.33559
428.15	6633.34998
428.365	6617.25901
428.58	6627.30941
428.795	6661.64225
429.01	6633.34998
429.226	6623.28667
429.441	6649.49618
429.656	6651.51836
429.87	6621.27659
430.085	6663.66964
430.3	6635.36523
430.515	6659.61573
430.73	6659.61573
430.945	6669.75704
431.16	6661.64225
431.375	6665.6979
431.59	6635.36523
431.804	6675.85229
432.019	6645.45444
432.234	6619.26737
432.449	6647.47488
432.663	6671.78792
432.878	6667.72703
433.093	6649.49618
433.308	6679.92016
433.522	6657.59009
433.737	6623.28667
433.951	6671.78792
434.166	6665.6979
434.381	6673.81967
434.595	6683.99154
434.81	6659.61573
435.024	6637.38134
435.239	6659.61573
435.453	6643.43487
435.668	6716.68914
435.882	6712.58959
436.097	6665.6979
436.311	6669.75704
436.525	6677.88579
436.74	6671.78792
436.954	6690.10518
437.169	6694.18532
437.383	6655.56531
437.597	6704.4011
437.811	6683.99154
438.026	6708.49357
438.24	6710.54114
438.454	6690.10518
438.668	6671.78792
438.883	6661.64225
439.097	6677.88579
439.311	6700.31214
439.525	6710.54114
439.739	6694.18532
439.953	6688.06642
440.167	6700.31214
440.381	6714.63892
440.595	6696.22672
440.809	6708.49357
441.023	6696.22672
441.237	6716.68914
441.451	6716.68914
441.665	6716.68914
441.879	6737.2401
442.093	6759.94908
442.307	6690.10518
442.521	6762.01891
442.735	6708.49357
442.949	6741.36096
443.163	6696.22672
443.376	6704.4011
443.59	6724.89886
443.804	6724.89886
444.018	6714.63892
444.231	6747.54895
444.445	6731.06548
444.659	6739.30008
444.872	6712.58959
445.086	6737.2401
445.3	6726.95351
445.513	6743.42273
445.727	6747.54895
445.94	6768.23377
446.154	6724.89886
446.368	6786.92699
446.581	6768.23377
446.795	6749.6134
447.008	6782.76662
447.222	6770.30719
447.435	6753.74499
447.648	6782.76662
447.862	6778.60987
448.075	6782.76662
448.289	6801.51679
448.502	6791.09097
448.715	6762.01891
448.929	6816.15111
449.142	6782.76662
449.355	6791.09097
449.568	6801.51679
449.782	6841.34265
449.995	6841.34265
450.208	6809.8738
450.421	6841.34265
450.634	6814.05776
450.848	6820.34055
451.061	6845.55409
451.274	6849.76921
451.487	6851.87815
451.7	6887.87177
451.913	6851.87815
452.126	6853.98801
452.339	6870.9002
452.552	6858.21051
452.765	6866.6666
452.978	6860.32315
453.191	6900.63959
453.404	6917.71579
453.617	6921.99424
453.83	6881.50046
454.043	6875.13752
454.255	6919.85454
454.468	6919.85454
454.681	6930.56244
454.894	6934.8522
455.107	6952.04913
455.319	6934.8522
455.532	6967.14634
455.745	6949.8962
455.958	6939.14575
456.17	7010.53974
456.383	6975.79431
456.596	6958.51365
456.808	6971.46842
457.021	6980.12404
457.233	6997.48133
457.446	6980.12404
457.659	7023.63298
457.871	7047.72812
458.084	6973.63089
458.296	7019.26469
458.509	7014.90028
458.721	7098.49224
458.934	6995.3083
459.146	7054.32003
459.358	7043.33841
459.571	7065.32614
459.783	7038.95261
459.996	7041.14502
460.208	7012.71953
460.42	7116.27202
460.632	7036.76117
460.845	7076.35682
461.057	7049.92445
461.269	7038.95261
461.481	7074.14872
461.694	7054.32003
461.906	7067.53031
462.118	7052.12175
462.33	7038.95261
462.542	7078.56592
462.754	7094.05724
462.967	7105.15219
463.179	7102.93122
463.391	7107.37417
463.603	7109.59714
463.815	7127.41679
464.027	7111.8211
464.239	7122.95588
464.451	7114.04606
464.663	7134.11565
464.875	7116.27202
465.086	7174.49908
465.298	7114.04606
465.51	7179.00636
465.722	7096.27424
465.934	7165.4967
466.146	7152.02349
466.358	7138.58658
466.569	7172.24697
466.781	7192.5526
466.993	7179.00636
467.205	7161.00159
467.416	7192.5526
467.628	7206.13558
467.84	7226.57925
468.051	7231.13361
468.263	7222.02902
468.475	7224.30362
468.686	7181.26152
468.898	7283.80676
469.109	7217.4829
469.321	7219.75544
469.532	7233.41233
469.744	7263.12998
469.955	7247.10639
470.167	7272.30921
470.378	7267.71751
470.59	7272.30921
470.801	7274.60663
471.013	7302.25736
471.224	7288.41311
471.435	7311.50792
471.647	7258.54661
471.858	7341.68919
472.069	7288.41311
472.281	7332.38354
472.492	7276.90509
472.703	7279.2046
472.914	7304.56842
473.126	7369.70861
473.337	7339.36118
473.548	7334.70835
473.759	7318.45693
473.97	7311.50792
474.181	7330.05978
474.392	7297.6384
474.604	7313.8232
474.815	7372.05052
475.026	7339.36118
475.237	7306.88053
475.448	7362.6893
475.659	7374.39351
475.87	7348.67961
476.081	7313.8232
476.292	7386.12462
476.502	7421.48018
476.713	7341.68919
476.924	7362.6893
477.135	7369.70861
477.346	7388.47407
477.557	7334.70835
477.768	7360.35168
477.978	7358.01512
478.189	7339.36118
478.4	7367.36776
478.611	7379.08272
478.821	7339.36118
479.032	7395.52892
479.243	7348.67961
479.453	7376.73758
479.664	7369.70861
479.875	7355.67964
480.085	7360.35168
480.296	7346.3484
480.507	7369.70861
480.717	7337.03423
480.928	7402.59351
481.138	7383.77624
481.349	7341.68919
481.559	7412.02815
481.77	7409.66786
481.98	7426.21273
482.19	7376.73758
482.401	7395.52892
482.611	7383.77624
482.822	7449.94111
483.032	7409.66786
483.242	7454.69995
483.453	7397.8827
483.663	7423.84591
483.873	7407.30866
484.084	7464.23085
484.294	7402.59351
484.504	7416.75198
484.714	7423.84591
484.924	7440.43661
485.135	7426.21273
485.345	7490.53201
485.555	7423.84591
485.765	7452.31998
485.975	7459.4632
486.185	7423.84591
486.395	7416.75198
486.605	7426.21273
486.815	7419.11553
487.025	7426.21273
487.235	7419.11553
487.445	7459.4632
487.655	7421.48018
487.865	7395.52892
488.075	7469.00292
488.285	7442.81109
488.495	7452.31998
488.705	7440.43661
488.915	7435.69094
489.124	7500.12937
489.334	7440.43661
489.544	7483.34567
489.754	7483.34567
489.964	7471.39061
490.173	7483.34567
490.383	7497.72836
490.593	7464.23085
490.802	7478.56032
491.012	7471.39061
491.222	7430.94965
491.431	7449.94111
491.641	7419.11553
491.851	7469.00292
492.06	7464.23085
492.27	7461.84647
492.479	7438.06323
492.689	7426.21273
492.898	7407.30866
493.108	7386.12462
493.317	7476.16931
493.527	7400.23756
493.736	7502.53149
493.945	7409.66786
494.155	7426.21273
494.364	7428.58064
494.574	7419.11553
494.783	7414.38952
494.992	7449.94111
495.202	7428.58064
495.411	7430.94965
495.62	7402.59351
495.829	7445.18667
496.039	7416.75198
496.248	7421.48018
496.457	7461.84647
496.666	7492.92968
496.875	7414.38952
497.084	7464.23085
497.294	7430.94965
497.503	7459.4632
497.712	7466.61633
497.921	7478.56032
498.13	7407.30866
498.339	7502.53149
498.548	7469.00292
498.757	7426.21273
498.966	7480.95244
499.175	7466.61633
499.384	7445.18667
499.593	7469.00292
499.802	7430.94965
500.011	7478.56032
500.219	7459.4632
500.428	7519.37765
500.637	7483.34567
500.846	7509.74457
501.055	7492.92968
501.263	7502.53149
501.472	7514.55887
501.681	7490.53201
501.89	7550.80931
502.098	7521.78873
502.307	7492.92968
502.516	7541.11775
502.724	7469.00292
502.933	7521.78873
503.142	7485.74
503.35	7488.13545
503.559	7521.78873
503.767	7541.11775
503.976	7490.53201
504.184	7541.11775
504.393	7512.15116
504.601	7567.81312
504.81	7461.84647
505.018	7512.15116
505.227	7497.72836
505.435	7526.61424
505.644	7488.13545
505.852	7567.81312
506.06	7507.33909
506.269	7562.94922
506.477	7553.23503
506.685	7538.69769
506.894	7524.20092
507.102	7582.43212
507.31	7502.53149
507.518	7524.20092
507.727	7519.37765
507.935	7567.81312
508.143	7536.27874
508.351	7524.20092
508.559	7533.86093
508.768	7555.66188
508.976	7533.86093
509.184	7536.27874
509.392	7555.66188
509.6	7524.20092
509.808	7521.78873
510.016	7516.9677
510.224	7500.12937
510.432	7536.27874
510.64	7541.11775
510.848	7541.11775
511.056	7545.96127
511.264	7524.20092
511.472	7526.61424
511.679	7584.87261
511.887	7545.96127
512.095	7558.08986
512.303	7516.9677
512.511	7538.69769
512.719	7553.23503
512.926	7597.09221
513.134	7550.80931
513.342	7570.24677
513.55	7509.74457
513.757	7594.646
513.965	7541.11775
514.173	7560.51897
514.38	7555.66188
514.588	7565.3806
514.796	7529.02868
515.003	7545.96127
515.211	7558.08986
515.418	7514.55887
515.626	7560.51897
515.833	7560.51897
516.041	7558.08986
516.248	7560.51897
516.456	7560.51897
516.663	7565.3806
516.871	7529.02868
517.078	7579.99277
517.285	7577.55456
517.493	7500.12937
517.7	7562.94922
517.908	7567.81312
518.115	7512.15116
518.322	7529.02868
518.529	7550.80931
518.737	7575.11749
518.944	7550.80931
519.151	7565.3806
519.358	7541.11775
519.566	7555.66188
519.773	7577.55456
519.98	7606.88851
520.187	7545.96127
520.394	7490.53201
520.601	7548.38473
520.809	7570.24677
521.016	7536.27874
521.223	7555.66188
521.43	7516.9677
521.637	7531.44424
521.844	7558.08986
522.051	7550.80931
522.258	7558.08986
522.465	7609.34045
522.672	7567.81312
522.878	7533.86093
523.085	7516.9677
523.292	7560.51897
523.499	7531.44424
523.706	7548.38473
523.913	7570.24677
524.12	7545.96127
524.326	7529.02868
524.533	7533.86093
524.74	7497.72836
524.947	7502.53149
525.153	7502.53149
525.36	7504.93474
525.567	7572.68156
525.773	7565.3806
525.98	7562.94922
526.187	7512.15116
526.393	7550.80931
526.6	7531.44424
526.806	7558.08986
527.013	7592.20094
527.22	7584.87261
527.426	7594.646
527.633	7558.08986
527.839	7526.61424
528.046	7560.51897
528.252	7567.81312
528.458	7565.3806
528.665	7548.38473
528.871	7558.08986
529.078	7584.87261
529.284	7604.43771
529.49	7582.43212
529.697	7555.66188
529.903	7560.51897
530.109	7553.23503
530.316	7550.80931
530.522	7562.94922
530.728	7619.15974
530.934	7531.44424
531.14	7560.51897
531.347	7619.15974
531.553	7555.66188
531.759	7550.80931
531.965	7524.20092
532.171	7577.55456
532.377	7562.94922
532.583	7529.02868
532.789	7594.646
532.996	7504.93474
533.202	7575.11749
533.408	7524.20092
533.614	7570.24677
533.82	7526.61424
534.025	7567.81312
534.231	7541.11775
534.437	7541.11775
534.643	7521.78873
534.849	7570.24677
535.055	7572.68156
535.261	7560.51897
535.467	7579.99277
535.672	7582.43212
535.878	7502.53149
536.084	7543.53895
536.29	7524.20092
536.496	7562.94922
536.701	7531.44424
536.907	7507.33909
537.113	7473.77941
537.318	7533.86093
537.524	7514.55887
537.73	7567.81312
537.935	7524.20092
538.141	7536.27874
538.346	7536.27874
538.552	7529.02868
538.758	7488.13545
538.963	7516.9677
539.169	7516.9677
539.374	7514.55887
539.58	7543.53895
539.785	7538.69769
539.991	7545.96127
540.196	7512.15116
540.401	7565.3806
540.607	7565.3806
540.812	7478.56032
541.017	7567.81312
541.223	7531.44424
541.428	7594.646
541.633	7550.80931
541.839	7550.80931
542.044	7502.53149
542.249	7548.38473
542.454	7509.74457
542.66	7562.94922
542.865	7521.78873
543.07	7562.94922
543.275	7533.86093
543.48	7575.11749
543.686	7483.34567
543.891	7507.33909
544.096	7538.69769
544.301	7565.3806
544.506	7548.38473
544.711	7521.78873
544.916	7488.13545
545.121	7509.74457
545.326	7526.61424
545.531	7516.9677
545.736	7514.55887
545.941	7519.37765
546.146	7521.78873
546.351	7509.74457
546.555	7476.16931
546.76	7507.33909
546.965	7516.9677
547.17	7483.34567
547.375	7471.39061
547.58	7519.37765
547.784	7579.99277
547.989	7500.12937
548.194	7483.34567
548.399	7507.33909
548.603	7485.74
548.808	7478.56032
549.013	7485.74
549.217	7577.55456
549.422	7430.94965
549.627	7497.72836
549.831	7526.61424
550.036	7500.12937
550.24	7442.81109
550.445	7476.16931
550.649	7516.9677
550.854	7480.95244
551.058	7490.53201
551.263	7485.74
551.467	7457.08103
551.672	7471.39061
551.876	7459.4632
552.081	7449.94111
552.285	7485.74
552.489	7495.32846
552.694	7454.69995
552.898	7509.74457
553.102	7438.06323
553.307	7497.72836
553.511	7476.16931
553.715	7469.00292
553.919	7495.32846
554.124	7426.21273
554.328	7483.34567
554.532	7488.13545
554.736	7430.94965
554.94	7485.74
555.145	7488.13545
555.349	7466.61633
555.553	7476.16931
555.757	7476.16931
555.961	7502.53149
556.165	7471.39061
556.369	7516.9677
556.573	7504.93474
556.777	7452.31998
556.981	7502.53149
557.185	7514.55887
557.389	7500.12937
557.593	7404.95054
557.797	7473.77941
558.001	7500.12937
558.205	7497.72836
558.409	7449.94111
558.612	7516.9677
558.816	7476.16931
559.02	7440.43661
559.224	7488.13545
559.428	7473.77941
559.631	7426.21273
559.835	7488.13545
560.039	7449.94111
560.243	7464.23085
560.446	7488.13545
560.65	7449.94111
560.854	7500.12937
561.057	7440.43661
561.261	7504.93474
561.464	7500.12937
561.668	7476.16931
561.872	7500.12937
562.075	7419.11553
562.279	7438.06323
562.482	7461.84647
562.686	7466.61633
562.889	7490.53201
563.093	7507.33909
563.296	7402.59351
563.499	7500.12937
563.703	7426.21273
563.906	7419.11553
564.11	7419.11553
564.313	7440.43661
564.516	7433.31975
564.72	7423.84591
564.923	7412.02815
565.126	7433.31975
565.33	7376.73758
565.533	7390.82461
565.736	7397.8827
565.939	7351.01188
566.142	7339.36118
566.346	7369.70861
566.549	7379.08272
566.752	7348.67961
566.955	7395.52892
567.158	7400.23756
567.361	7346.3484
567.564	7358.01512
567.767	7395.52892
567.971	7402.59351
568.174	7365.028
568.377	7358.01512
568.58	7348.67961
568.783	7332.38354
568.985	7325.41546
569.188	7341.68919
569.391	7323.09489
569.594	7304.56842
569.797	7339.36118
570	7325.41546
570.203	7334.70835
570.406	7330.05978
570.609	7281.50516
570.811	7320.77538
571.014	7337.03423
571.217	7337.03423
571.42	7320.77538
571.622	7341.68919
571.825	7295.3305
572.028	7316.13953
572.231	7351.01188
572.433	7332.38354
572.636	7286.10941
572.838	7297.6384
573.041	7330.05978
573.244	7311.50792
573.446	7318.45693
573.649	7276.90509
573.851	7286.10941
574.054	7281.50516
574.256	7313.8232
574.459	7332.38354
574.661	7309.1937
574.864	7353.34523
575.066	7351.01188
575.269	7344.01826
575.471	7355.67964
575.673	7346.3484
575.876	7306.88053
576.078	7381.42894
576.281	7362.6893
576.483	7325.41546
576.685	7407.30866
576.887	7346.3484
577.09	7320.77538
577.292	7311.50792
577.494	7339.36118
577.696	7337.03423
577.899	7344.01826
578.101	7346.3484
578.303	7325.41546
578.505	7355.67964
578.707	7379.08272
578.909	7339.36118
579.111	7358.01512
579.314	7318.45693
579.516	7337.03423
579.718	7318.45693
579.92	7409.66786
580.122	7327.73709
580.324	7358.01512
580.526	7362.6893
580.728	7337.03423
580.93	7404.95054
581.131	7355.67964
581.333	7306.88053
581.535	7369.70861
581.737	7339.36118
581.939	7388.47407
582.141	7388.47407
582.343	7341.68919
582.544	7372.05052
582.746	7348.67961
582.948	7344.01826
583.15	7388.47407
583.352	7379.08272
583.553	7376.73758
583.755	7374.39351
583.957	7353.34523
584.158	7376.73758
584.36	7390.82461
584.562	7362.6893
584.763	7316.13953
584.965	7414.38952
585.166	7351.01188
585.368	7407.30866
585.569	7379.08272
585.771	7390.82461
585.972	7421.48018
586.174	7409.66786
586.375	7388.47407
586.577	7341.68919
586.778	7400.23756
586.98	7358.01512
587.181	7355.67964
587.383	7383.77624
587.584	7374.39351
587.785	7400.23756
587.987	7412.02815
588.188	7344.01826
588.389	7341.68919
588.591	7388.47407
588.792	7330.05978
588.993	7358.01512
589.194	7344.01826
589.396	7407.30866
589.597	7381.42894
589.798	7386.12462
589.999	7395.52892
590.2	7353.34523
590.401	7346.3484
590.603	7386.12462
590.804	7355.67964
591.005	7341.68919
591.206	7379.08272
591.407	7348.67961
591.608	7374.39351
591.809	7344.01826
592.01	7327.73709
592.211	7346.3484
592.412	7386.12462
592.613	7348.67961
592.814	7346.3484
593.015	7351.01188
593.216	7313.8232
593.416	7374.39351
593.617	7339.36118
593.818	7332.38354
594.019	7367.36776
594.22	7276.90509
594.421	7316.13953
594.621	7302.25736
594.822	7344.01826
595.023	7358.01512
595.224	7388.47407
595.424	7290.71786
595.625	7316.13953
595.826	7348.67961
596.026	7323.09489
596.227	7330.05978
596.428	7337.03423
596.628	7332.38354
596.829	7339.36118
597.029	7376.73758
597.23	7367.36776
597.43	7334.70835
597.631	7353.34523
597.831	7346.3484
598.032	7309.1937
598.232	7320.77538
598.433	7332.38354
598.633	7351.01188
598.834	7325.41546
599.034	7302.25736
599.234	7325.41546
599.435	7360.35168
599.635	7332.38354
599.835	7320.77538
600.036	7279.2046
600.236	7330.05978
600.436	7325.41546
600.637	7325.41546
600.837	7286.10941
601.037	7339.36118
601.237	7346.3484
601.438	7330.05978
601.638	7320.77538
601.838	7330.05978
602.038	7316.13953
602.238	7358.01512
602.438	7295.3305
602.638	7313.8232
602.838	7316.13953
603.038	7320.77538
603.239	7346.3484
603.439	7320.77538
603.639	7299.94735
603.839	7302.25736
604.039	7256.25649
604.238	7270.01284
604.438	7274.60663
604.638	7295.3305
604.838	7244.82146
605.038	7251.67937
605.238	7293.02365
605.438	7237.97288
605.638	7260.83778
605.838	7286.10941
606.037	7295.3305
606.237	7281.50516
606.437	7260.83778
606.637	7279.2046
606.836	7265.42322
607.036	7274.60663
607.236	7258.54661
607.436	7270.01284
607.635	7251.67937
607.835	7295.3305
608.034	7247.10639
608.234	7288.41311
608.434	7247.10639
608.633	7309.1937
608.833	7224.30362
609.032	7249.39236
609.232	7217.4829
609.431	7244.82146
609.631	7240.25471
609.83	7283.80676
610.03	7274.60663
610.229	7235.69209
610.429	7222.02902
610.628	7240.25471
610.828	7258.54661
611.027	7274.60663
611.226	7219.75544
611.426	7242.53757
611.625	7244.82146
611.824	7270.01284
612.024	7219.75544
612.223	7231.13361
612.422	7217.4829
612.621	7265.42322
612.821	7235.69209
613.02	7228.85591
613.219	7226.57925
613.418	7231.13361
613.617	7212.94089
613.817	7251.67937
614.016	7253.96741
614.215	7215.21138
614.414	7226.57925
614.613	7265.42322
614.812	7249.39236
615.011	7240.25471
615.21	7233.41233
615.409	7256.25649
615.608	7210.67143
615.807	7258.54661
616.006	7222.02902
616.205	7249.39236
616.404	7256.25649
616.603	7270.01284
616.802	7240.25471
617.001	7263.12998
617.2	7224.30362
617.398	7197.07618
617.597	7237.97288
617.796	7233.41233
617.995	7233.41233
618.194	7240.25471
618.392	7192.5526
618.591	7263.12998
618.79	7203.8692
618.988	7194.81388
619.187	7219.75544
619.386	7199.33949
619.585	7249.39236
619.783	7212.94089
619.982	7265.42322
620.18	7194.81388
620.379	7235.69209
620.578	7181.26152
620.776	7235.69209
620.975	7217.4829
621.173	7256.25649
621.372	7242.53757
621.57	7226.57925
621.769	7203.8692
621.967	7208.403
622.166	7217.4829
622.364	7183.5177
622.562	7206.13558
622.761	7190.29235
622.959	7208.403
623.157	7206.13558
623.356	7167.74578
623.554	7161.00159
623.752	7242.53757
623.951	7165.4967
624.149	7134.11565
624.347	7143.06153
624.546	7138.58658
624.744	7206.13558
624.942	7154.2665
625.14	7152.02349
625.338	7131.8817
625.536	7176.75221
625.735	7185.7749
625.933	7185.7749
626.131	7156.51052
626.329	7163.24864
626.527	7158.75555
626.725	7127.41679
626.923	7143.06153
627.121	7145.30051
627.319	7145.30051
627.517	7122.95588
627.715	7174.49908
627.913	7145.30051
628.111	7100.71123
628.309	7096.27424
628.507	7120.72693
628.705	7109.59714
628.903	7158.75555
629.1	7134.11565
629.298	7138.58658
629.496	7136.35062
629.694	7158.75555
629.892	7096.27424
630.089	7116.27202
630.287	7096.27424
630.485	7105.15219
630.683	7087.41217
630.88	7129.64874
631.078	7107.37417
631.276	7131.8817
631.473	7105.15219
631.671	7100.71123
631.869	7087.41217
632.066	7116.27202
632.264	7074.14872
632.461	7100.71123
632.659	7129.64874
632.856	7118.49897
633.054	7078.56592
633.251	7094.05724
633.449	7089.6262
633.646	7098.49224
633.844	7102.93122
634.041	7096.27424
634.239	7058.71953
634.436	7087.41217
634.634	7067.53031
634.831	7065.32614
635.028	7094.05724
635.226	7078.56592
635.423	7045.53278
635.62	7111.8211
635.817	7047.72812
636.015	7056.51929
636.212	7071.9416
636.409	7098.49224
636.606	7047.72812
636.804	7085.19912
637.001	7074.14872
637.198	7078.56592
637.395	7082.98706
637.592	7069.73546
637.789	7138.58658
637.987	7076.35682
638.184	7012.71953
638.381	7069.73546
638.578	7058.71953
638.775	7089.6262
638.972	7082.98706
639.169	7129.64874
639.366	7080.776
639.563	7063.12295
639.76	7082.98706
639.957	7094.05724
640.154	7074.14872
640.351	7129.64874
640.547	7082.98706
640.744	7116.27202
640.941	7074.14872
641.138	7065.32614
641.335	7105.15219
641.532	7129.64874
641.728	7111.8211
641.925	7098.49224
642.122	7054.32003
642.319	7071.9416
642.515	7080.776
642.712	7100.71123
642.909	7109.59714
643.105	7116.27202
643.302	7096.27424
643.499	7102.93122
643.695	7076.35682
643.892	7120.72693
644.089	7096.27424
644.285	7080.776
644.482	7136.35062
644.678	7089.6262
644.875	7129.64874
645.071	7076.35682
645.268	7087.41217
645.464	7069.73546
645.661	7107.37417
645.857	7089.6262
646.054	7114.04606
646.25	7091.84122
646.446	7071.9416
646.643	7114.04606
646.839	7060.92075
647.035	7085.19912
647.232	7060.92075
647.428	7116.27202
647.624	7078.56592
647.821	7036.76117
648.017	7082.98706
648.213	7052.12175
648.409	7054.32003
648.606	7094.05724
648.802	7105.15219
648.998	7065.32614
649.194	7071.9416
649.39	7105.15219
649.586	7074.14872
649.783	7107.37417
649.979	7065.32614
650.175	7080.776
650.371	7052.12175
650.567	7052.12175
650.763	7080.776
650.959	7074.14872
651.155	7056.51929
651.351	7054.32003
651.547	7056.51929
651.743	7082.98706
651.939	7094.05724
652.135	7060.92075
652.33	7074.14872
652.526	7089.6262
652.722	7065.32614
652.918	7069.73546
653.114	7087.41217
653.31	7052.12175
653.506	7043.33841
653.701	7082.98706
653.897	7034.5707
654.093	7069.73546
654.289	7030.19269
654.484	7071.9416
654.68	7045.53278
654.876	7052.12175
655.071	7060.92075
655.267	7074.14872
655.463	7030.19269
655.658	7078.56592
655.854	7085.19912
656.049	7063.12295
656.245	7052.12175
656.441	7017.082
656.636	7017.082
656.832	7071.9416
657.027	7021.44835
657.223	7067.53031
657.418	7023.63298
657.613	7036.76117
657.809	7019.26469
658.004	7063.12295
658.2	7076.35682
658.395	7063.12295
658.591	7019.26469
658.786	7056.51929
658.981	7043.33841
659.177	7056.51929
659.372	7047.72812
659.567	7006.18308
659.762	7047.72812
659.958	7043.33841
660.153	7052.12175
660.348	7063.12295
660.543	7006.18308
660.739	7006.18308
660.934	7036.76117
661.129	7014.90028
661.324	7034.5707
661.519	7023.63298
661.714	6997.48133
661.909	7043.33841
662.104	6990.96513
662.299	7001.83027
662.495	7014.90028
662.69	7021.44835
662.885	6990.96513
663.08	7004.00619
663.275	6986.62581
663.469	7001.83027
663.664	6954.20302
663.859	7008.36093
664.054	6954.20302
664.249	7017.082
664.444	6971.46842
664.639	6932.70685
664.834	6947.74421
665.029	6960.67039
665.223	6930.56244
665.418	6949.8962
665.613	6941.29394
665.808	6939.14575
666.003	6941.29394
666.197	6915.57798
666.392	6902.77083
666.587	6973.63089
666.781	6969.3069
666.976	6917.71579
667.171	6952.04913
667.365	6885.74707
667.56	6892.12397
667.755	6960.67039
667.949	6902.77083
668.144	6924.13487
668.338	6907.03613
668.533	6887.87177
668.727	6902.77083
668.922	6911.30517
669.116	6898.50928
669.311	6896.37991
669.505	6911.30517
669.7	6902.77083
669.894	6858.21051
670.089	6917.71579
670.283	6875.13752
670.477	6917.71579
670.672	6845.55409
670.866	6892.12397
671.06	6841.34265
671.255	6894.25148
671.449	6883.6233
671.643	6885.74707
671.837	6887.87177
672.032	6909.17018
672.226	6839.23831
672.42	6877.25757
672.614	6875.13752
672.809	6889.99741
673.003	6885.74707
673.197	6911.30517
673.391	6849.76921
673.585	6879.37855
673.779	6898.50928
673.973	6881.50046
674.167	6883.6233
674.361	6864.55119
674.555	6873.0184
674.749	6851.87815
674.943	6881.50046
675.137	6892.12397
675.331	6892.12397
675.525	6915.57798
675.719	6845.55409
675.913	6879.37855
676.107	6875.13752
676.301	6856.0988
676.495	6870.9002
676.689	6887.87177
676.883	6873.0184
677.076	6868.78294
677.27	6856.0988
677.464	6860.32315
677.658	6868.78294
677.852	6877.25757
678.045	6889.99741
678.239	6902.77083
678.433	6870.9002
678.626	6862.43671
678.82	6877.25757
679.014	6870.9002
679.207	6870.9002
679.401	6860.32315
679.595	6843.44791
679.788	6856.0988
679.982	6866.6666
680.175	6866.6666
680.369	6868.78294
680.563	6875.13752
680.756	6885.74707
680.95	6873.0184
681.143	6858.21051
681.336	6879.37855
681.53	6858.21051
681.723	6879.37855
681.917	6862.43671
682.11	6894.25148
682.304	6881.50046
682.497	6841.34265
682.69	6870.9002
682.884	6881.50046
683.077	6841.34265
683.27	6868.78294
683.464	6849.76921
683.657	6875.13752
683.85	6873.0184
684.043	6868.78294
684.237	6839.23831
684.43	6892.12397
684.623	6853.98801
684.816	6864.55119
685.009	6835.03239
685.202	6862.43671
685.396	6851.87815
685.589	6904.90301
685.782	6849.76921
685.975	6879.37855
686.168	6828.73039
686.361	6868.78294
686.554	6860.32315
686.747	6841.34265
686.94	6845.55409
687.133	6866.6666
687.326	6864.55119
687.519	6858.21051
687.712	6837.13489
687.905	6894.25148
688.098	6866.6666
688.291	6877.25757
688.484	6866.6666
688.676	6856.0988
688.869	6841.34265
689.062	6860.32315
689.255	6862.43671
689.448	6866.6666
689.64	6860.32315
689.833	6881.50046
690.026	6849.76921
690.219	6864.55119
690.411	6866.6666
690.604	6856.0988
690.797	6875.13752
690.989	6864.55119
691.182	6837.13489
691.375	6883.6233
691.567	6839.23831
691.76	6841.34265
691.952	6826.63156
692.145	6847.66119
692.338	6828.73039
692.53	6889.99741
692.723	6795.25858
692.915	6795.25858
693.108	6828.73039
693.3	6828.73039
693.493	6782.76662
693.685	6791.09097
693.877	6799.42981
694.07	6832.93081
694.262	6822.43664
694.455	6797.34374
694.647	6789.00853
694.839	6782.76662
695.032	6784.84636
695.224	6809.8738
695.416	6770.30719
695.609	6749.6134
695.801	6753.74499
695.993	6745.4854
696.185	6737.2401
696.378	6770.30719
696.57	6720.79223
696.762	6768.23377
696.954	6768.23377
697.146	6737.2401
697.338	6729.00905
697.53	6735.181
697.723	6733.1228
697.915	6749.6134
698.107	6729.00905
698.299	6722.8451
698.491	6692.14481
698.683	6757.88016
698.875	6726.95351
699.067	6710.54114
699.259	6702.35618
699.451	6708.49357
699.643	6692.14481
699.835	6712.58959
700.027	6686.02854
700.219	6702.35618
700.41	6716.68914
700.602	6726.95351
700.794	6663.66964
700.986	6696.22672
701.178	6661.64225
701.37	6702.35618
701.561	6677.88579
701.753	6690.10518
701.945	6694.18532
702.137	6686.02854
702.328	6683.99154
702.52	6708.49357
702.712	6683.99154
702.903	6671.78792
703.095	6667.72703
703.287	6706.44689
703.478	6681.95541
703.67	6669.75704
703.862	6686.02854
704.053	6683.99154
704.245	6675.85229
704.436	6688.06642
704.628	6655.56531
704.819	6669.75704
705.011	6698.26899
705.202	6694.18532
705.394	6679.92016
705.585	6688.06642
705.777	6706.44689
705.968	6659.61573
706.159	6690.10518
706.351	6667.72703
706.542	6686.02854
706.734	6683.99154
706.925	6679.92016
707.116	6669.75704
707.308	6669.75704
707.499	6706.44689
707.69	6683.99154
707.881	6677.88579
708.073	6692.14481
708.264	6694.18532
708.455	6694.18532
708.646	6702.35618
708.837	6688.06642
709.029	6706.44689
709.22	6683.99154
709.411	6681.95541
709.602	6700.31214
709.793	6692.14481
709.984	6704.4011
710.175	6696.22672
710.366	6698.26899
710.557	6698.26899
710.748	6698.26899
710.939	6690.10518
711.13	6698.26899
711.321	6720.79223
711.512	6692.14481
711.703	6708.49357
711.894	6692.14481
712.085	6694.18532
712.276	6696.22672
712.467	6706.44689
712.658	6708.49357
712.849	6708.49357
713.039	6708.49357
713.23	6686.02854
713.421	6706.44689
713.612	6724.89886
713.803	6710.54114
713.993	6722.8451
714.184	6700.31214
714.375	6698.26899
714.566	6710.54114
714.756	6726.95351
714.947	6720.79223
715.138	6735.181
715.328	6724.89886
715.519	6733.1228
715.709	6714.63892
715.9	6778.60987
716.091	6708.49357
716.281	6726.95351
716.472	6712.58959
716.662	6724.89886
716.853	6720.79223
717.043	6755.81212
717.234	6720.79223
717.424	6745.4854
717.615	6716.68914
717.805	6716.68914
717.996	6731.06548
718.186	6726.95351
718.376	6726.95351
718.567	6768.23377
718.757	6747.54895
718.947	6753.74499
719.138	6739.30008
719.328	6743.42273
719.518	6739.30008
719.709	6768.23377
719.899	6743.42273
720.089	6729.00905
720.279	6716.68914
720.47	6741.36096
720.66	6729.00905
720.85	6759.94908
721.04	6712.58959
721.23	6733.1228
721.421	6753.74499
721.611	6768.23377
721.801	6753.74499
721.991	6774.45673
722.181	6737.2401
722.371	6733.1228
722.561	6737.2401
722.751	6737.2401
722.941	6694.18532
723.131	6764.08963
723.321	6757.88016
723.511	6733.1228
723.701	6708.49357
723.891	6751.67875
724.081	6726.95351
724.271	6759.94908
724.461	6735.181
724.651	6749.6134
724.84	6743.42273
725.03	6733.1228
725.22	6718.74024
725.41	6741.36096
725.6	6745.4854
725.789	6731.06548
725.979	6733.1228
726.169	6741.36096
726.359	6712.58959
726.548	6778.60987
726.738	6729.00905
726.928	6768.23377
727.118	6720.79223
727.307	6759.94908
727.497	6708.49357
727.686	6759.94908
727.876	6706.44689
728.066	6737.2401
728.255	6729.00905
728.445	6749.6134
728.634	6741.36096
728.824	6747.54895
729.013	6710.54114
729.203	6731.06548
729.392	6766.16125
729.582	6731.06548
729.771	6747.54895
729.961	6741.36096
730.15	6712.58959
730.34	6741.36096
730.529	6692.14481
730.718	6733.1228
730.908	6718.74024
731.097	6741.36096
731.286	6708.49357
731.476	6716.68914
731.665	6724.89886
731.854	6751.67875
732.044	6724.89886
732.233	6716.68914
732.422	6720.79223
732.611	6729.00905
732.8	6712.58959
732.99	6733.1228
733.179	6722.8451
733.368	6729.00905
733.557	6733.1228
733.746	6741.36096
733.935	6718.74024
734.124	6720.79223
734.313	6712.58959
734.503	6710.54114
734.692	6724.89886
734.881	6706.44689
735.07	6686.02854
735.259	6743.42273
735.448	6710.54114
735.637	6694.18532
735.826	6675.85229
736.015	6708.49357
736.203	6708.49357
736.392	6708.49357
736.581	6677.88579
736.77	6643.43487
736.959	6645.45444
737.148	6649.49618
737.337	6647.47488
737.525	6665.6979
737.714	6643.43487
737.903	6669.75704
738.092	6661.64225
738.281	6617.25901
738.469	6633.34998
738.658	6629.32207
738.847	6643.43487
739.035	6625.29761
739.224	6633.34998
739.413	6629.32207
739.601	6609.23416
739.79	6641.41616
739.979	6627.30941
740.167	6643.43487
740.356	6615.25151
740.544	6599.22237
740.733	6607.23009
740.921	6599.22237
741.11	6597.22258
741.299	6613.24487
741.487	6627.30941
741.675	6609.23416
741.864	6605.22688
742.052	6593.22555
742.241	6625.29761
742.429	6591.22831
742.618	6577.2715
742.806	6605.22688
742.994	6609.23416
743.183	6591.22831
743.371	6579.26278
743.559	6601.22302
743.748	6587.2364
743.936	6607.23009
744.124	6605.22688
744.312	6621.27659
744.501	6625.29761
744.689	6589.23193
744.877	6613.24487
745.065	6627.30941
745.254	6605.22688
745.442	6621.27659
745.63	6627.30941
745.818	6625.29761
746.006	6611.23909
746.194	6619.26737
746.382	6635.36523
746.57	6631.33559
746.758	6605.22688
746.946	6631.33559
747.134	6619.26737
747.323	6645.45444
747.51	6641.41616
747.698	6635.36523
747.886	6631.33559
748.074	6661.64225
748.262	6635.36523
748.45	6635.36523
748.638	6649.49618
748.826	6665.6979
749.014	6639.39832
749.202	6683.99154
749.39	6635.36523
749.577	6667.72703
749.765	6653.5414
749.953	6661.64225
750.141	6659.61573
750.329	6643.43487
750.516	6653.5414
750.704	6649.49618
750.892	6675.85229
751.079	6645.45444
751.267	6667.72703
751.455	6673.81967
751.643	6627.30941
751.83	6702.35618
752.018	6643.43487
752.205	6667.72703
752.393	6692.14481
752.581	6679.92016
752.768	6669.75704
752.956	6702.35618
753.143	6661.64225
753.331	6657.59009
753.518	6663.66964
753.706	6653.5414
753.893	6643.43487
754.081	6655.56531
754.268	6669.75704
754.456	6661.64225
754.643	6688.06642
754.83	6671.78792
755.018	6677.88579
755.205	6683.99154
755.392	6651.51836
755.58	6679.92016
755.767	6651.51836
755.954	6671.78792
756.142	6651.51836
756.329	6643.43487
756.516	6657.59009
756.703	6667.72703
756.891	6629.32207
757.078	6643.43487
757.265	6647.47488
757.452	6673.81967
757.639	6659.61573
757.827	6651.51836
758.014	6675.85229
758.201	6649.49618
758.388	6665.6979
758.575	6663.66964
758.762	6645.45444
758.949	6647.47488
759.136	6647.47488
759.323	6671.78792
759.51	6657.59009
759.697	6651.51836
759.884	6651.51836
760.071	6649.49618
760.258	6635.36523
760.445	6663.66964
760.632	6688.06642
760.819	6627.30941
761.006	6623.28667
761.193	6627.30941
761.38	6667.72703
761.566	6629.32207
761.753	6643.43487
761.94	6643.43487
762.127	6651.51836
762.314	6665.6979
762.5	6655.56531
762.687	6667.72703
762.874	6663.66964
763.061	6649.49618
763.247	6643.43487
763.434	6675.85229
763.621	6645.45444
763.807	6667.72703
763.994	6641.41616
764.181	6669.75704
764.367	6617.25901
764.554	6655.56531
764.74	6661.64225
764.927	6641.41616
765.114	6647.47488
765.3	6643.43487
765.487	6629.32207
765.673	6647.47488
765.86	6629.32207
766.046	6627.30941
766.233	6635.36523
766.419	6643.43487
766.605	6637.38134
766.792	6635.36523
766.978	6621.27659
767.165	6639.39832
767.351	6641.41616
767.537	6607.23009
767.724	6637.38134
767.91	6611.23909
768.096	6621.27659
768.283	6639.39832
768.469	6635.36523
768.655	6623.28667
768.841	6627.30941
769.028	6671.78792
769.214	6627.30941
769.4	6629.32207
769.586	6613.24487
769.773	6583.24789
769.959	6615.25151
770.145	6631.33559
770.331	6625.29761
770.517	6643.43487
770.703	6605.22688
770.889	6613.24487
771.075	6597.22258
771.261	6651.51836
771.447	6599.22237
771.633	6621.27659
771.819	6613.24487
772.005	6633.34998
772.191	6613.24487
772.377	6627.30941
772.563	6611.23909
772.749	6611.23909
772.935	6621.27659
773.121	6641.41616
773.307	6627.30941
773.493	6617.25901
773.679	6627.30941
773.865	6645.45444
774.05	6635.36523
774.236	6643.43487
774.422	6595.22363
774.608	6641.41616
774.794	6617.25901
774.979	6619.26737
775.165	6619.26737
775.351	6619.26737
775.537	6617.25901
775.722	6615.25151
775.908	6613.24487
776.094	6635.36523
776.279	6625.29761
776.465	6629.32207
776.65	6609.23416
776.836	6613.24487
777.022	6623.28667
777.207	6627.30941
777.393	6641.41616
777.578	6617.25901
777.764	6623.28667
777.949	6599.22237
778.135	6643.43487
778.32	6641.41616
778.506	6595.22363
778.691	6599.22237
778.877	6603.22452
779.062	6629.32207
779.247	6607.23009
779.433	6611.23909
779.618	6617.25901
779.804	6613.24487
779.989	6595.22363
780.174	6605.22688
780.36	6611.23909
780.545	6627.30941
780.73	6593.22555
780.915	6595.22363
781.101	6577.2715
781.286	6623.28667
781.471	6627.30941
781.656	6627.30941
781.842	6647.47488
782.027	6603.22452
782.212	6611.23909
782.397	6601.22302
782.582	6617.25901
782.767	6625.29761
782.952	6615.25151
783.138	6605.22688
783.323	6599.22237
783.508	6631.33559
783.693	6609.23416
783.878	6599.22237
784.063	6621.27659
784.248	6589.23193
784.433	6603.22452
784.618	6623.28667
784.803	6633.34998
784.988	6629.32207
785.173	6603.22452
785.357	6607.23009
785.542	6621.27659
785.727	6613.24487
785.912	6623.28667
786.097	6635.36523
786.282	6617.25901
786.467	6631.33559
786.651	6619.26737
786.836	6605.22688
787.021	6595.22363
787.206	6627.30941
787.391	6595.22363
787.575	6643.43487
787.76	6621.27659
787.945	6611.23909
788.129	6595.22363
788.314	6595.22363
788.499	6603.22452
788.683	6589.23193
788.868	6615.25151
789.053	6619.26737
789.237	6579.26278
789.422	6611.23909
789.606	6587.2364
789.791	6613.24487
789.975	6597.22258
790.16	6603.22452
790.344	6597.22258
790.529	6573.29148
790.713	6599.22237
790.898	6595.22363
791.082	6571.30274
791.267	6587.2364
791.451	6565.3416
791.636	6591.22831
791.82	6583.24789
792.004	6601.22302
792.189	6551.46184
792.373	6591.22831
792.557	6573.29148
792.742	6597.22258
792.926	6567.3278
793.11	6571.30274
793.295	6567.3278
793.479	6597.22258
793.663	6549.48239
793.847	6563.35625
794.031	6573.29148
794.216	6563.35625
794.4	6593.22555
794.584	6597.22258
794.768	6611.23909
794.952	6577.2715
795.136	6541.57299
795.32	6575.28106
795.505	6575.28106
795.689	6555.42327
795.873	6569.31485
796.057	6581.25491
796.241	6549.48239
796.425	6539.59773
796.609	6573.29148
796.793	6571.30274
796.977	6553.44214
797.161	6583.24789
797.345	6555.42327
797.529	6571.30274
797.713	6565.3416
797.896	6551.46184
798.08	6569.31485
798.264	6565.3416
798.448	6553.44214
798.632	6565.3416
798.816	6569.31485
798.999	6553.44214
799.183	6565.3416
799.367	6551.46184
799.551	6563.35625
799.735	6569.31485
799.918	6579.26278
800.102	6543.54908
800.286	6561.37174
800.469	6575.28106
800.653	6559.38807
800.837	6595.22363
801.02	6547.50378
801.204	6555.42327
801.388	6529.73404
801.571	6575.28106
801.755	6571.30274
801.938	6575.28106
802.122	6559.38807
802.306	6581.25491
802.489	6573.29148
802.673	6577.2715
802.856	6529.73404
803.04	6563.35625
803.223	6551.46184
803.406	6599.22237
803.59	6555.42327
803.773	6539.59773
803.957	6575.28106
804.14	6565.3416
804.323	6581.25491
804.507	6573.29148
804.69	6561.37174
804.874	6581.25491
805.057	6555.42327
805.24	6597.22258
805.423	6539.59773
805.607	6543.54908
805.79	6543.54908
805.973	6577.2715
806.156	6549.48239
806.34	6591.22831
806.523	6575.28106
806.706	6571.30274
806.889	6579.26278
807.072	6553.44214
807.256	6555.42327
807.439	6567.3278
807.622	6587.2364
807.805	6571.30274
807.988	6571.30274
808.171	6557.40525
808.354	6577.2715
808.537	6549.48239
808.72	6563.35625
808.903	6581.25491
809.086	6559.38807
809.269	6565.3416
809.452	6555.42327
809.635	6565.3416
809.818	6559.38807
810.001	6583.24789
810.184	6581.25491
810.367	6543.54908
810.55	6547.50378
810.732	6589.23193
810.915	6549.48239
811.098	6539.59773
811.281	6559.38807
811.464	6569.31485
811.647	6579.26278
811.829	6579.26278
812.012	6563.35625
812.195	6571.30274
812.378	6575.28106
812.56	6579.26278
812.743	6557.40525
812.926	6575.28106
813.108	6579.26278
813.291	6573.29148
813.474	6559.38807
813.656	6585.24172
813.839	6563.35625
814.022	6537.62332
814.204	6575.28106
814.387	6571.30274
814.569	6585.24172
814.752	6533.67701
814.934	6591.22831
815.117	6563.35625
815.299	6543.54908
815.482	6551.46184
815.664	6575.28106
815.847	6579.26278
816.029	6607.23009
816.212	6579.26278
816.394	6565.3416
816.576	6563.35625
816.759	6579.26278
816.941	6551.46184
817.123	6539.59773
817.306	6591.22831
817.488	6567.3278
817.67	6581.25491
817.853	6555.42327
818.035	6559.38807
818.217	6577.2715
818.4	6557.40525
818.582	6547.50378
818.764	6563.35625
818.946	6567.3278
819.128	6561.37174
819.311	6575.28106
819.493	6571.30274
819.675	6567.3278
819.857	6575.28106
820.039	6579.26278
820.221	6549.48239
820.403	6563.35625
820.585	6565.3416
820.767	6551.46184
820.949	6579.26278
821.132	6547.50378
821.314	6567.3278
821.496	6589.23193
821.678	6571.30274
821.859	6571.30274
822.041	6583.24789
822.223	6579.26278
822.405	6559.38807
822.587	6573.29148
822.769	6555.42327
822.951	6559.38807
823.133	6605.22688
823.315	6583.24789
823.497	6571.30274
823.678	6563.35625
823.86	6557.40525
824.042	6561.37174
824.224	6577.2715
824.406	6555.42327
824.587	6575.28106
824.769	6561.37174
824.951	6579.26278
825.132	6557.40525
825.314	6563.35625
825.496	6559.38807
825.678	6561.37174
825.859	6547.50378
826.041	6531.70511
826.222	6581.25491
826.404	6555.42327
826.586	6543.54908
826.767	6589.23193
826.949	6569.31485
827.13	6573.29148
827.312	6581.25491
827.493	6541.57299
827.675	6525.79442
827.856	6557.40525
828.038	6571.30274
828.219	6579.26278
828.401	6567.3278
828.582	6555.42327
828.764	6551.46184
828.945	6559.38807
829.126	6543.54908
829.308	6579.26278
829.489	6549.48239
829.671	6559.38807
829.852	6547.50378
830.033	6547.50378
830.214	6537.62332
830.396	6579.26278
830.577	6569.31485
830.758	6543.54908
830.94	6563.35625
831.121	6595.22363
831.302	6561.37174
831.483	6557.40525
831.664	6543.54908
831.846	6567.3278
832.027	6547.50378
832.208	6579.26278
832.389	6575.28106
832.57	6541.57299
832.751	6573.29148
832.932	6547.50378
833.113	6539.59773
833.294	6557.40525
833.476	6539.59773
833.657	6577.2715
833.838	6553.44214
834.019	6561.37174
834.2	6537.62332
834.381	6547.50378
834.561	6563.35625
834.742	6533.67701
834.923	6579.26278
835.104	6539.59773
835.285	6575.28106
835.466	6563.35625
835.647	6545.52601
835.828	6517.92519
836.009	6547.50378
836.189	6579.26278
836.37	6557.40525
836.551	6549.48239
836.732	6551.46184
836.913	6531.70511
837.093	6581.25491
837.274	6561.37174
837.455	6563.35625
837.636	6543.54908
837.816	6547.50378
837.997	6565.3416
838.178	6571.30274
838.358	6555.42327
838.539	6547.50378
838.72	6543.54908
838.9	6539.59773
839.081	6555.42327
839.261	6527.76381
839.442	6549.48239
839.622	6565.3416
839.803	6549.48239
839.984	6527.76381
840.164	6543.54908
840.345	6551.46184
840.525	6533.67701
840.705	6525.79442
840.886	6543.54908
841.066	6545.52601
841.247	6571.30274
841.427	6551.46184
841.608	6529.73404
841.788	6553.44214
841.968	6549.48239
842.149	6553.44214
842.329	6545.52601
842.509	6569.31485
842.69	6510.06929
842.87	6559.38807
843.05	6549.48239
843.231	6543.54908
843.411	6545.52601
843.591	6559.38807
843.771	6569.31485
843.951	6559.38807
844.132	6555.42327
844.312	6537.62332
844.492	6547.50378
844.672	6555.42327
844.852	6543.54908
845.032	6571.30274
845.213	6553.44214
845.393	6553.44214
845.573	6551.46184
845.753	6543.54908
845.933	6567.3278
846.113	6549.48239
846.293	6559.38807
846.473	6551.46184
846.653	6523.82586
846.833	6541.57299
847.013	6529.73404
847.193	6577.2715
847.373	6531.70511
847.553	6551.46184
847.733	6559.38807
847.913	6563.35625
848.092	6551.46184
848.272	6557.40525
848.452	6563.35625
848.632	6555.42327
848.812	6573.29148
848.992	6535.64975
849.171	6535.64975
849.351	6547.50378
849.531	6519.89125
849.711	6567.3278
849.89	6567.3278
850.07	6561.37174
850.25	6539.59773
850.43	6557.40525
850.609	6547.50378
850.789	6565.3416
850.969	6555.42327
851.148	6587.2364
851.328	6549.48239
851.507	6537.62332
851.687	6555.42327
851.867	6525.79442
852.046	6545.52601
852.226	6563.35625
852.405	6547.50378
852.585	6521.85814
852.764	6541.57299
852.944	6533.67701
853.123	6563.35625
853.303	6533.67701
853.482	6577.2715
853.662	6539.59773
853.841	6543.54908
854.021	6557.40525
854.2	6563.35625
854.379	6543.54908
854.559	6559.38807
854.738	6557.40525
854.917	6539.59773
855.097	6549.48239
855.276	6563.35625
855.455	6535.64975
855.635	6529.73404
855.814	6519.89125
855.993	6559.38807
856.172	6555.42327
856.352	6555.42327
856.531	6551.46184
856.71	6531.70511
856.889	6557.40525
857.068	6547.50378
857.248	6531.70511
857.427	6571.30274
857.606	6551.46184
857.785	6545.52601
857.964	6533.67701
858.143	6537.62332
858.322	6559.38807
858.501	6541.57299
858.68	6577.2715
858.859	6553.44214
859.038	6549.48239
859.217	6551.46184
859.396	6551.46184
859.575	6567.3278
859.754	6543.54908
859.933	6557.40525
860.112	6571.30274
860.291	6512.03202
860.47	6523.82586
860.649	6557.40525
860.828	6553.44214
861.007	6563.35625
861.186	6531.70511
861.364	6551.46184
861.543	6547.50378
861.722	6541.57299
861.901	6551.46184
862.08	6523.82586
862.258	6559.38807
862.437	6541.57299
862.616	6553.44214
862.795	6527.76381
862.973	6553.44214
863.152	6533.67701
863.331	6549.48239
863.509	6539.59773
863.688	6539.59773
863.867	6543.54908
864.045	6551.46184
864.224	6525.79442
864.402	6533.67701
864.581	6539.59773
864.76	6513.99558
864.938	6517.92519
865.117	6555.42327
865.295	6543.54908
865.474	6527.76381
865.652	6521.85814
865.831	6543.54908
866.009	6533.67701
866.188	6561.37174
866.366	6551.46184
866.544	6545.52601
866.723	6541.57299
866.901	6525.79442
867.08	6549.48239
867.258	6541.57299
867.436	6539.59773
867.615	6567.3278
867.793	6519.89125
867.971	6547.50378
868.15	6539.59773
868.328	6559.38807
868.506	6555.42327
868.684	6539.59773
868.863	6543.54908
869.041	6551.46184
869.219	6525.79442
869.397	6547.50378
869.576	6531.70511
869.754	6547.50378
869.932	6531.70511
870.11	6545.52601
870.288	6541.57299
870.466	6549.48239
870.644	6527.76381
870.822	6537.62332
871.001	6555.42327
871.179	6555.42327
871.357	6508.10739
871.535	6543.54908
871.713	6531.70511
871.891	6545.52601
872.069	6529.73404
872.247	6537.62332
872.425	6523.82586
872.603	6519.89125
872.781	6555.42327
872.958	6529.73404
873.136	6535.64975
873.314	6506.14633
873.492	6523.82586
873.67	6535.64975
873.848	6519.89125
874.026	6539.59773
874.204	6539.59773
874.381	6543.54908
874.559	6531.70511
874.737	6543.54908
874.915	6529.73404
875.092	6539.59773
875.27	6535.64975
875.448	6545.52601
875.626	6551.46184
875.803	6545.52601
875.981	6543.54908
876.159	6527.76381
876.336	6537.62332
876.514	6541.57299
876.692	6535.64975
876.869	6535.64975
877.047	6531.70511
877.224	6523.82586
877.402	6535.64975
877.58	6537.62332
877.757	6525.79442
877.935	6539.59773
878.112	6508.10739
878.29	6533.67701
878.467	6535.64975
878.645	6513.99558
878.822	6533.67701
879	6521.85814
879.177	6513.99558
879.354	6525.79442
879.532	6531.70511
879.709	6525.79442
879.887	6527.76381
880.064	6539.59773
880.241	6559.38807
880.419	6513.99558
880.596	6531.70511
880.773	6529.73404
880.951	6523.82586
881.128	6533.67701
881.305	6529.73404
881.482	6547.50378
881.66	6539.59773
881.837	6519.89125
882.014	6506.14633
882.191	6500.2681
882.368	6521.85814
882.546	6521.85814
882.723	6515.95997
882.9	6543.54908
883.077	6517.92519
883.254	6525.79442
883.431	6517.92519
883.608	6553.44214
883.785	6512.03202
883.962	6551.46184
884.139	6547.50378
884.317	6543.54908
884.494	6551.46184
884.671	6533.67701
884.848	6531.70511
885.025	6508.10739
885.201	6508.10739
885.378	6549.48239
885.555	6557.40525
885.732	6543.54908
885.909	6545.52601
886.086	6525.79442
886.263	6529.73404
886.44	6535.64975
886.617	6547.50378
886.794	6527.76381
886.97	6519.89125
887.147	6555.42327
887.324	6525.79442
887.501	6539.59773
887.678	6523.82586
887.854	6549.48239
888.031	6513.99558
888.208	6555.42327
888.384	6519.89125
888.561	6539.59773
888.738	6535.64975
888.915	6521.85814
889.091	6537.62332
889.268	6527.76381
889.444	6512.03202
889.621	6527.76381
889.798	6545.52601
889.974	6519.89125
890.151	6527.76381
890.327	6527.76381
890.504	6541.57299
890.681	6537.62332
890.857	6523.82586
891.034	6541.57299
891.21	6519.89125
891.387	6531.70511
891.563	6541.57299
891.739	6543.54908
891.916	6549.48239
892.092	6527.76381
892.269	6547.50378
892.445	6533.67701
892.622	6517.92519
892.798	6521.85814
892.974	6567.3278
893.151	6519.89125
893.327	6551.46184
893.503	6541.57299
893.68	6539.59773
893.856	6551.46184
894.032	6525.79442
894.208	6529.73404
894.385	6502.22668
894.561	6539.59773
894.737	6529.73404
894.913	6563.35625
895.089	6523.82586
895.266	6537.62332
895.442	6527.76381
895.618	6519.89125
895.794	6537.62332
895.97	6513.99558
896.146	6531.70511
896.322	6515.95997
896.499	6515.95997
896.675	6515.95997
896.851	6531.70511
897.027	6547.50378
897.203	6531.70511
897.379	6529.73404
897.555	6500.2681
897.731	6533.67701
897.907	6531.70511
898.083	6517.92519
898.259	6519.89125
898.435	6504.18609
898.611	6529.73404
898.786	6543.54908
898.962	6525.79442
899.138	6508.10739
899.314	6529.73404
899.49	6551.46184
899.666	6529.73404
899.842	6541.57299
900.017	6527.76381
900.193	6547.50378
900.369	6539.59773
900.545	6551.46184
900.72	6535.64975
900.896	6510.06929
901.072	6531.70511
901.248	6523.82586
901.423	6533.67701
901.599	6510.06929
901.775	6533.67701
901.95	6517.92519
902.126	6517.92519
902.302	6529.73404
902.477	6551.46184
902.653	6529.73404
902.829	6523.82586
903.004	6531.70511
903.18	6539.59773
903.355	6517.92519
903.531	6517.92519
903.706	6527.76381
903.882	6519.89125
904.057	6547.50378
904.233	6547.50378
904.408	6513.99558
904.584	6547.50378
904.759	6519.89125
904.935	6508.10739
905.11	6523.82586
905.285	6521.85814
905.461	6541.57299
905.636	6527.76381
905.812	6517.92519
905.987	6525.79442
906.162	6502.22668
906.338	6539.59773
906.513	6500.2681
906.688	6510.06929
906.863	6510.06929
907.039	6525.79442
907.214	6521.85814
907.389	6519.89125
907.564	6541.57299
907.74	6539.59773
907.915	6525.79442
908.09	6537.62332
908.265	6533.67701
908.44	6539.59773
908.615	6504.18609
908.791	6488.53401
908.966	6551.46184
909.141	6517.92519
909.316	6494.39734
909.491	6541.57299
909.666	6541.57299
909.841	6488.53401
910.016	6527.76381
910.191	6525.79442
910.366	6525.79442
910.541	6513.99558
910.716	6496.35343
910.891	6517.92519
911.066	6543.54908
911.241	6533.67701
911.416	6529.73404
911.591	6529.73404
911.766	6508.10739
911.941	6513.99558
912.116	6527.76381
912.29	6517.92519
912.465	6513.99558
912.64	6539.59773
912.815	6525.79442
912.99	6515.95997
913.165	6510.06929
913.339	6529.73404
913.514	6513.99558
913.689	6513.99558
913.864	6515.95997
914.038	6529.73404
914.213	6519.89125
914.388	6512.03202
914.562	6555.42327
914.737	6531.70511
914.912	6517.92519
915.086	6515.95997
915.261	6523.82586
915.436	6527.76381
915.61	6506.14633
915.785	6523.82586
915.959	6523.82586
916.134	6539.59773
916.309	6533.67701
916.483	6551.46184
916.658	6513.99558
916.832	6535.64975
917.007	6521.85814
917.181	6508.10739
917.356	6525.79442
917.53	6527.76381
917.704	6527.76381
917.879	6531.70511
918.053	6508.10739
918.228	6519.89125
918.402	6549.48239
918.576	6512.03202
918.751	6515.95997
918.925	6533.67701
919.1	6539.59773
919.274	6519.89125
919.448	6533.67701
919.622	6512.03202
919.797	6517.92519
919.971	6543.54908
920.145	6519.89125
920.32	6510.06929
920.494	6527.76381
920.668	6510.06929
920.842	6515.95997
921.016	6523.82586
921.191	6519.89125
921.365	6525.79442
921.539	6517.92519
921.713	6523.82586
921.887	6480.72779
922.061	6523.82586
922.235	6525.79442
922.409	6535.64975
922.583	6529.73404
922.758	6525.79442
922.932	6531.70511
923.106	6519.89125
923.28	6513.99558
923.454	6527.76381
923.628	6500.2681
923.802	6537.62332
923.976	6523.82586
924.149	6513.99558
924.323	6539.59773
924.497	6527.76381
924.671	6498.31035
924.845	6523.82586
925.019	6508.10739
925.193	6498.31035
925.367	6519.89125
925.541	6535.64975
925.714	6535.64975
925.888	6517.92519
926.062	6506.14633
926.236	6525.79442
926.41	6523.82586
926.583	6533.67701
926.757	6492.44207
926.931	6527.76381
927.105	6478.7783
927.278	6494.39734
927.452	6506.14633
927.626	6529.73404
927.799	6535.64975
927.973	6543.54908
928.147	6512.03202
928.32	6527.76381
928.494	6535.64975
928.668	6490.48763
928.841	6508.10739
929.015	6525.79442
929.188	6535.64975
929.362	6533.67701
929.535	6553.44214
929.709	6515.95997
929.882	6508.10739
930.056	6510.06929
930.229	6519.89125
930.403	6504.18609
930.576	6543.54908
930.75	6513.99558
930.923	6523.82586
931.097	6541.57299
931.27	6529.73404
931.443	6541.57299
931.617	6515.95997
931.79	6519.89125
931.963	6523.82586
932.137	6535.64975
932.31	6519.89125
932.483	6515.95997
932.657	6517.92519
932.83	6521.85814
933.003	6502.22668
933.177	6535.64975
933.35	6533.67701
933.523	6523.82586
933.696	6512.03202
933.869	6515.95997
934.043	6527.76381
934.216	6533.67701
934.389	6519.89125
934.562	6515.95997
934.735	6517.92519
934.908	6543.54908
935.082	6519.89125
935.255	6513.99558
935.428	6521.85814
935.601	6519.89125
935.774	6531.70511
935.947	6541.57299
936.12	6513.99558
936.293	6519.89125
936.466	6508.10739
936.639	6506.14633
936.812	6523.82586
936.985	6512.03202
937.158	6510.06929
937.331	6541.57299
937.504	6508.10739
937.677	6531.70511
937.85	6531.70511
938.022	6523.82586
938.195	6510.06929
938.368	6517.92519
938.541	6541.57299
938.714	6527.76381
938.887	6519.89125
939.059	6523.82586
939.232	6506.14633
939.405	6535.64975
939.578	6515.95997
939.751	6512.03202
939.923	6492.44207
940.096	6523.82586
940.269	6519.89125
940.441	6519.89125
940.614	6547.50378
940.787	6504.18609
940.96	6517.92519
941.132	6519.89125
941.305	6512.03202
941.477	6515.95997
941.65	6537.62332
941.823	6533.67701
941.995	6537.62332
942.168	6541.57299
942.34	6535.64975
942.513	6531.70511
942.685	6504.18609
942.858	6517.92519
943.03	6521.85814
943.203	6521.85814
943.375	6521.85814
943.548	6529.73404
943.72	6559.38807
943.893	6508.10739
944.065	6512.03202
944.238	6512.03202
944.41	6523.82586
944.582	6521.85814
944.755	6543.54908
944.927	6525.79442
945.1	6549.48239
945.272	6519.89125
945.444	6519.89125
945.617	6527.76381
945.789	6525.79442
945.961	6527.76381
946.133	6531.70511
946.306	6508.10739
946.478	6513.99558
946.65	6521.85814
946.822	6515.95997
946.995	6531.70511
947.167	6513.99558
947.339	6508.10739
947.511	6543.54908
947.683	6513.99558
947.855	6515.95997
948.027	6515.95997
948.2	6527.76381
948.372	6515.95997
948.544	6513.99558
948.716	6541.57299
948.888	6515.95997
949.06	6527.76381
949.232	6521.85814
949.404	6545.52601
949.576	6531.70511
949.748	6512.03202
949.92	6504.18609
950.092	6519.89125
950.264	6496.35343
950.436	6533.67701
950.608	6531.70511
950.78	6529.73404
950.952	6506.14633
951.124	6531.70511
951.295	6523.82586
951.467	6510.06929
951.639	6506.14633
951.811	6535.64975
951.983	6539.59773
952.155	6517.92519
952.326	6525.79442
952.498	6533.67701
952.67	6539.59773
952.842	6527.76381
953.014	6498.31035
953.185	6517.92519
953.357	6513.99558
953.529	6523.82586
953.7	6510.06929
953.872	6476.82963
954.044	6541.57299
954.215	6506.14633
954.387	6547.50378
954.559	6523.82586
954.73	6527.76381
954.902	6508.10739
955.074	6537.62332
955.245	6543.54908
955.417	6547.50378
955.588	6547.50378
955.76	6527.76381
955.931	6515.95997
956.103	6529.73404
956.274	6539.59773
956.446	6494.39734
956.617	6541.57299
956.789	6504.18609
956.96	6517.92519
957.132	6515.95997
957.303	6527.76381
957.474	6519.89125
957.646	6529.73404
957.817	6533.67701
957.989	6517.92519
958.16	6543.54908
958.331	6529.73404
958.503	6521.85814
958.674	6519.89125
958.845	6521.85814
959.017	6515.95997
959.188	6515.95997
959.359	6543.54908
959.53	6506.14633
959.702	6519.89125
959.873	6531.70511
960.044	6527.76381
960.215	6531.70511
960.387	6506.14633
960.558	6523.82586
960.729	6523.82586
960.9	6515.95997
961.071	6519.89125
961.242	6541.57299
961.413	6517.92519
961.585	6500.2681
961.756	6521.85814
961.927	6543.54908
962.098	6512.03202
962.269	6512.03202
962.44	6533.67701
962.611	6510.06929
962.782	6521.85814
962.953	6512.03202
963.124	6529.73404
963.295	6523.82586
963.466	6529.73404
963.637	6531.70511
963.808	6510.06929
963.979	6510.06929
964.15	6531.70511
964.32	6549.48239
964.491	6539.59773
964.662	6519.89125
964.833	6529.73404
965.004	6523.82586
965.175	6531.70511
965.346	6506.14633
965.516	6525.79442
965.687	6521.85814
965.858	6523.82586
966.029	6508.10739
966.199	6539.59773
966.37	6519.89125
966.541	6515.95997
966.712	6523.82586
966.882	6508.10739
967.053	6533.67701
967.224	6513.99558
967.394	6547.50378
967.565	6529.73404
967.736	6519.89125
967.906	6515.95997
968.077	6533.67701
968.248	6527.76381
968.418	6533.67701
968.589	6529.73404
968.759	6519.89125
968.93	6513.99558
969.1	6525.79442
969.271	6515.95997
969.441	6525.79442
969.612	6543.54908
969.782	6500.2681
969.953	6521.85814
970.123	6543.54908
970.294	6549.48239
970.464	6502.22668
970.635	6506.14633
970.805	6531.70511
970.975	6527.76381
971.146	6510.06929
971.316	6517.92519
971.487	6519.89125
971.657	6527.76381
971.827	6523.82586
971.998	6519.89125
972.168	6515.95997
972.338	6517.92519
972.508	6527.76381
972.679	6537.62332
972.849	6541.57299
973.019	6523.82586
973.189	6531.70511
973.36	6500.2681
973.53	6517.92519
973.7	6555.42327
973.87	6527.76381
974.04	6527.76381
974.211	6512.03202
974.381	6512.03202
974.551	6504.18609
974.721	6531.70511
974.891	6506.14633
975.061	6523.82586
975.231	6531.70511
975.401	6525.79442
975.571	6525.79442
975.741	6519.89125
975.911	6531.70511
976.081	6531.70511
976.251	6512.03202
976.421	6531.70511
976.591	6527.76381
976.761	6508.10739
976.931	6515.95997
977.101	6535.64975
977.271	6547.50378
977.441	6533.67701
977.611	6527.76381
977.781	6527.76381
977.951	6517.92519
978.121	6541.57299
978.291	6521.85814
978.46	6523.82586
978.63	6515.95997
978.8	6535.64975
978.97	6512.03202
979.14	6537.62332
979.309	6504.18609
979.479	6527.76381
979.649	6519.89125
979.819	6494.39734
979.988	6523.82586
980.158	6521.85814
980.328	6543.54908
980.497	6531.70511
980.667	6523.82586
980.837	6531.70511
981.006	6515.95997
981.176	6527.76381
981.346	6531.70511
981.515	6519.89125
981.685	6539.59773
981.854	6527.76381
982.024	6521.85814
982.194	6533.67701
982.363	6525.79442
982.533	6559.38807
982.702	6517.92519
982.872	6537.62332
983.041	6521.85814
983.211	6531.70511
983.38	6513.99558
983.55	6531.70511
983.719	6515.95997
983.889	6513.99558
984.058	6527.76381
984.227	6500.2681
984.397	6519.89125
984.566	6531.70511
984.735	6517.92519
984.905	6519.89125
985.074	6527.76381
985.244	6559.38807
985.413	6517.92519
985.582	6533.67701
985.751	6517.92519
985.921	6535.64975
986.09	6529.73404
986.259	6519.89125
986.428	6545.52601
986.598	6508.10739
986.767	6506.14633
986.936	6512.03202
987.105	6533.67701
987.275	6527.76381
987.444	6504.18609
987.613	6502.22668
987.782	6553.44214
987.951	6531.70511
988.12	6527.76381
988.289	6515.95997
988.458	6533.67701
988.628	6527.76381
988.797	6529.73404
988.966	6519.89125
989.135	6512.03202
989.304	6512.03202
989.473	6527.76381
989.642	6535.64975
989.811	6533.67701
989.98	6537.62332
990.149	6531.70511
990.318	6525.79442
990.487	6531.70511
990.656	6508.10739
990.824	6521.85814
990.993	6531.70511
991.162	6539.59773
991.331	6523.82586
991.5	6531.70511
991.669	6517.92519
991.838	6539.59773
992.007	6529.73404
992.175	6512.03202
992.344	6533.67701
992.513	6543.54908
992.682	6541.57299
992.85	6502.22668
993.019	6541.57299
993.188	6547.50378
993.357	6531.70511
993.525	6539.59773
993.694	6551.46184
993.863	6523.82586
994.032	6541.57299
994.2	6504.18609
994.369	6531.70511
994.537	6527.76381
994.706	6533.67701
994.875	6523.82586
995.043	6539.59773
995.212	6543.54908
995.381	6539.59773
995.549	6531.70511
995.718	6519.89125
995.886	6535.64975
996.055	6537.62332
996.223	6506.14633
996.392	6547.50378
996.56	6504.18609
996.729	6529.73404
996.897	6506.14633
997.066	6529.73404
997.234	6500.2681
997.403	6527.76381
997.571	6527.76381
997.739	6529.73404
997.908	6508.10739
998.076	6500.2681
998.244	6504.18609
998.413	6510.06929
998.581	6527.76381
998.75	6533.67701
998.918	6515.95997
999.086	6537.62332
999.254	6517.92519
999.423	6519.89125
999.591	6506.14633
999.759	6529.73404
999.928	6529.73404
1000.096	6508.10739
1000.264	6512.03202
1000.432	6488.53401
1000.6	6519.89125
1000.769	6539.59773
1000.937	6515.95997
1001.105	6549.48239
1001.273	6539.59773
1001.441	6531.70511
1001.609	6533.67701
1001.777	6531.70511
1001.945	6549.48239
1002.114	6519.89125
1002.282	6515.95997
1002.45	6535.64975
1002.618	6547.50378
1002.786	6539.59773
1002.954	6515.95997
1003.122	6500.2681
1003.29	6506.14633
1003.458	6541.57299
1003.626	6539.59773
1003.794	6529.73404
1003.962	6541.57299
1004.13	6521.85814
1004.298	6506.14633
1004.465	6510.06929
1004.633	6519.89125
1004.801	6527.76381
1004.969	6525.79442
1005.137	6519.89125
1005.305	6508.10739
1005.473	6502.22668
1005.64	6531.70511
1005.808	6517.92519
1005.976	6502.22668
1006.144	6515.95997
1006.312	6535.64975
1006.479	6525.79442
1006.647	6512.03202
1006.815	6523.82586
1006.983	6515.95997
1007.15	6547.50378
1007.318	6531.70511
1007.486	6508.10739
1007.653	6539.59773
1007.821	6517.92519
1007.989	6523.82586
1008.156	6521.85814
1008.324	6531.70511
1008.492	6537.62332
1008.659	6504.18609
1008.827	6523.82586
1008.994	6519.89125
1009.162	6525.79442
1009.329	6539.59773
1009.497	6529.73404
1009.665	6492.44207
1009.832	6517.92519
1010	6551.46184
1010.167	6531.70511
1010.335	6529.73404
1010.502	6541.57299
1010.669	6512.03202
1010.837	6525.79442
1011.004	6533.67701
1011.172	6537.62332
1011.339	6521.85814
1011.507	6525.79442
1011.674	6510.06929
1011.841	6527.76381
1012.009	6496.35343
1012.176	6488.53401
1012.343	6535.64975
1012.511	6512.03202
1012.678	6519.89125
1012.845	6513.99558
1013.013	6519.89125
1013.18	6537.62332
1013.347	6537.62332
1013.514	6531.70511
1013.682	6504.18609
1013.849	6531.70511
1014.016	6525.79442
1014.183	6508.10739
1014.35	6531.70511
1014.518	6517.92519
1014.685	6535.64975
1014.852	6545.52601
1015.019	6533.67701
1015.186	6535.64975
1015.353	6535.64975
1015.52	6504.18609
1015.687	6541.57299
1015.855	6482.67811
1016.022	6523.82586
1016.189	6527.76381
1016.356	6508.10739
1016.523	6531.70511
1016.69	6508.10739
1016.857	6523.82586
1017.024	6539.59773
1017.191	6515.95997
1017.358	6515.95997
1017.525	6521.85814
1017.692	6535.64975
1017.858	6523.82586
1018.025	6519.89125
1018.192	6508.10739
1018.359	6517.92519
1018.526	6494.39734
1018.693	6529.73404
1018.86	6500.2681
1019.027	6533.67701
1019.193	6531.70511
1019.36	6541.57299
1019.527	6521.85814
1019.694	6529.73404
1019.861	6500.2681
1020.027	6498.31035
1020.194	6531.70511
1020.361	6525.79442
1020.528	6496.35343
1020.694	6500.2681
1020.861	6510.06929
1021.028	6506.14633
1021.195	6543.54908
1021.361	6521.85814
1021.528	6525.79442
1021.694	6517.92519
1021.861	6527.76381
1022.028	6519.89125
1022.194	6551.46184
1022.361	6543.54908
1022.528	6531.70511
1022.694	6543.54908
1022.861	6519.89125
1023.027	6529.73404
1023.194	6525.79442
1023.36	6531.70511
1023.527	6506.14633
1023.693	6504.18609
1023.86	6500.2681
1024.026	6519.89125
1024.193	6504.18609
1024.359	6508.10739
1024.526	6490.48763
