Data from Sun spf900_Subt2__0__10-07-13-864.txt Node

Date: Tue Sep 23 10:07:13 EDT 2025
User: brett
Spectrometer: USB4F03499
Trigger mode: 4
Integration Time (sec): 1.000000E-1
Scans to average: 1
Electric dark correction enabled: true
Nonlinearity correction enabled: true
Boxcar width: 0
XAxis mode: Wavelengths
Number of Pixels in Spectrum: 3648
>>>>>Begin Spectral Data<<<<<
0	1.34612
0.225	1.34612
0.449	1.34612
0.674	-72.44513
0.898	-181.21986
1.123	-122.51602
1.347	-62.85761
1.572	3.63136
1.796	88.52918
2.021	17.38681
2.245	-19.25222
2.469	47.16127
2.694	-35.28455
2.918	24.26224
3.143	51.7763
3.367	51.69519
3.591	-44.58312
3.815	44.85772
4.04	3294.70677
4.264	4571.72932
4.488	4435.69969
4.712	4490.84648
4.936	4284.74563
5.161	4450.83011
5.385	4291.01175
5.609	4385.55645
5.833	4398.4364
6.057	4428.39794
6.281	4489.49815
6.505	4488.64683
6.729	4424.96486
6.953	4643.04059
7.177	4570.18128
7.401	4420.62037
7.625	4439.41496
7.849	4559.65323
8.073	4487.01415
8.297	4563.21723
8.521	4411.86911
8.744	4541.37123
8.968	4657.7928
9.192	4556.04253
9.416	4605.97141
9.64	4483.30729
9.863	4642.65975
10.087	4528.04484
10.311	4517.23629
10.535	4412.37586
10.758	4644.96098
10.982	4533.46357
11.205	4345.13354
11.429	4549.59851
11.653	4554.71248
11.876	4603.93198
12.1	4629.11527
12.323	4597.49574
12.547	4445.62066
12.77	4653.01109
12.994	4577.14669
13.217	4595.31291
13.441	4547.88538
13.664	4787.46509
13.887	4707.75589
14.111	4764.55462
14.334	4675.84957
14.557	4571.28094
14.781	4732.93266
15.004	4569.18914
15.227	4587.71588
15.451	4748.63979
15.674	4726.13245
15.897	4638.86948
16.12	4722.99172
16.343	4694.71522
16.567	4607.33344
16.79	4667.54619
17.013	4705.6438
17.236	4664.35704
17.459	4751.25577
17.682	4713.10263
17.905	4829.74988
18.128	4715.54628
18.351	4663.01755
18.574	4830.72173
18.797	4775.30934
19.02	4784.31429
19.243	4879.51738
19.466	4702.88571
19.689	4871.01901
19.911	4895.57368
20.134	4869.65349
20.357	4886.63458
20.58	4720.70016
20.803	4856.14024
21.025	4821.26444
21.248	4792.54603
21.471	4838.07919
21.694	5008.28755
21.916	4848.31237
22.139	4810.89936
22.362	4929.26327
22.584	4832.93212
22.807	4874.25425
23.029	4802.45309
23.252	4892.1429
23.475	5195.08878
23.697	5121.36447
23.92	4969.60946
24.142	4886.63458
24.365	4932.71057
24.587	4937.05345
24.809	4932.47159
25.032	4916.49651
25.254	4874.76696
25.477	4975.79654
25.699	4977.14932
25.921	5029.81333
26.144	4879.11726
26.366	5101.16095
26.588	4980.12318
26.81	5156.93687
27.033	5178.09806
27.255	4793.6836
27.477	5065.29598
27.699	5047.68379
27.921	5141.75669
28.144	5016.98979
28.366	5013.09203
28.588	5234.72471
28.81	5203.74127
29.032	5195.8569
29.254	5380.88941
29.476	5067.33389
29.698	5226.76253
29.92	5285.91174
30.142	5340.3812
30.364	5196.85089
30.586	5123.99032
30.808	5284.71737
31.029	5244.08554
31.251	5252.46306
31.473	5176.87785
31.695	5434.50782
31.917	5108.77245
32.139	5223.94482
32.36	5211.76534
32.582	5488.25727
32.804	5298.27822
33.026	5229.77614
33.247	5334.67667
33.469	5418.67583
33.691	5369.82312
33.912	5303.35335
34.134	5357.48661
34.355	5521.43498
34.577	5457.44053
34.798	5504.67858
35.02	5475.20426
35.242	5378.83585
35.463	5425.57897
35.684	5459.74864
35.906	5604.25941
36.127	5523.94179
36.349	5631.14163
36.57	5726.33281
36.792	5627.18432
37.013	5610.78801
37.234	5680.64517
37.456	5552.78078
37.677	5538.82732
37.898	5747.6258
38.119	5771.92659
38.341	5668.70867
38.562	5629.2337
38.783	5759.26379
39.004	5589.18215
39.225	5660.37805
39.447	5914.68777
39.668	5849.12009
39.889	5861.99457
40.11	5753.76643
40.331	5829.11759
40.552	5975.24861
40.773	5938.15524
40.994	5729.36329
41.215	5830.78259
41.436	6063.15436
41.657	5762.28625
41.878	5771.78506
42.099	6039.90545
42.32	6195.12351
42.54	5903.08139
42.761	6230.55751
42.982	6226.20855
43.203	6083.05795
43.424	6322.59687
43.645	6092.38111
43.865	6231.06372
44.086	6137.27857
44.307	6299.62962
44.527	6225.97137
44.748	6285.12514
44.969	6257.57679
45.189	6283.32129
45.41	6262.42784
45.631	6280.77636
45.851	6383.46092
46.072	6443.0362
46.292	6360.10873
46.513	6218.55805
46.733	6414.38461
46.954	6546.38988
47.174	6445.45978
47.395	6695.98843
47.615	6599.74398
47.836	6582.70799
48.056	6814.49058
48.276	6453.47611
48.497	6553.97256
48.717	6637.87869
48.937	6669.91444
49.158	6994.43796
49.378	6919.02943
49.598	6940.51746
49.818	7060.34643
50.038	7255.55141
50.259	7367.30072
50.479	7517.5423
50.699	7636.75265
50.919	7907.36477
51.139	7872.84943
51.359	8494.47521
51.579	8730.8429
51.799	8845.5883
52.02	9130.36146
52.24	9444.49437
52.46	9798.12922
52.68	10134.54133
52.899	10135.91882
53.119	10425.01535
53.339	10929.58964
53.559	11034.21803
53.779	11060.86426
53.999	11599.16322
54.219	11656.07225
54.439	12174.01174
54.658	12432.19854
54.878	12758.85055
55.098	13344.41334
55.318	13661.87488
55.538	14423.91678
55.757	15060.34424
55.977	15350.83172
56.197	16392.83784
56.416	16940.08791
56.636	18316.51899
56.855	19462.02781
57.075	20063.89057
57.295	20743.43598
57.514	22179.83634
57.734	22916.93038
57.953	23543.58254
58.173	24896.58625
58.392	25381.35649
58.612	26433.62917
58.831	27708.00147
59.051	28830.92136
59.27	31032.54765
59.489	33063.78002
59.709	33767.67846
59.928	36818.99337
60.147	38000.19092
60.367	39887.85715
60.586	40753.39485
60.805	42804.45835
61.024	46748.94894
61.244	47164.96347
61.463	47461.91532
61.682	49942.64266
61.901	52949.37574
62.12	54079.9179
62.34	55366.4979
62.559	56626.97769
62.778	57840.17101
62.997	60855.11268
63.216	62979.99717
63.435	65608.58375
63.654	65457.38137
63.873	65569.56265
64.092	65555.80303
64.311	65496.25285
64.53	65535.17578
64.749	65553.51039
64.968	65542.04991
65.187	65638.45907
65.405	65555.80303
65.624	65551.21793
65.843	65530.59392
66.062	65539.75835
66.281	65503.11785
66.499	65626.96489
66.718	65608.58375
66.937	65526.01279
67.156	65542.04991
67.374	65581.03399
67.593	65443.67422
67.812	65551.21793
68.03	65562.68203
68.249	65610.88075
68.467	65581.03399
68.686	65514.56308
68.905	65503.11785
69.123	65672.96929
69.342	65546.63356
69.56	65576.44491
69.779	65649.95785
69.997	65523.72249
70.216	65564.97539
70.434	65539.75835
70.652	65509.98445
70.871	65555.80303
71.089	65583.3288
71.307	65624.66661
71.526	65532.88476
71.744	65590.21433
71.962	65583.3288
72.181	65587.91897
72.399	65581.03399
72.617	65537.46697
72.835	65521.43237
73.054	65590.21433
73.272	65567.26893
73.49	65578.73936
73.708	65631.56201
73.926	65622.3685
74.144	65617.77285
74.362	65532.88476
74.58	65567.26893
74.798	65564.97539
75.016	65548.92566
75.234	65581.03399
75.452	65555.80303
75.67	65519.14243
75.888	65592.50987
76.106	65493.96487
76.324	65626.96489
76.542	65631.56201
76.76	65551.21793
76.978	65562.68203
77.196	65594.80559
77.413	65521.43237
77.631	65498.541
77.849	65606.28694
78.067	65516.85266
78.284	65514.56308
78.502	65571.85656
78.72	65571.85656
78.938	65626.96489
79.155	65608.58375
79.373	65562.68203
79.59	65608.58375
79.808	65571.85656
80.026	65597.10149
80.243	65581.03399
80.461	65471.09487
80.678	65455.0964
80.896	65514.56308
81.113	65544.34164
81.331	65576.44491
81.548	65370.67575
81.766	65509.98445
81.983	65532.88476
82.2	65583.3288
82.418	65638.45907
82.635	65503.11785
82.852	65407.15268
83.07	65553.51039
83.287	65564.97539
83.504	65530.59392
83.722	65457.38137
83.939	65546.63356
84.156	65450.527
84.373	65603.9903
84.591	65562.68203
84.808	65548.92566
85.025	65509.98445
85.242	65583.3288
85.459	65542.04991
85.676	65553.51039
85.893	65620.07059
86.11	65535.17578
86.327	65537.46697
86.544	65548.92566
86.761	65578.73936
86.978	65509.98445
87.195	65544.34164
87.412	65654.55866
87.629	65599.39758
87.846	65560.38885
88.063	65475.66745
88.28	65553.51039
88.497	65562.68203
88.713	65592.50987
88.93	65617.77285
89.147	65578.73936
89.364	65519.14243
89.58	65546.63356
89.797	65519.14243
90.014	65548.92566
90.231	65496.25285
90.447	65574.15064
90.664	65519.14243
90.881	65528.30326
91.097	65482.52765
91.314	65489.38945
91.53	65567.26893
91.747	65537.46697
91.963	65601.69385
92.18	65553.51039
92.396	65553.51039
92.613	65539.75835
92.829	65638.45907
93.046	65622.3685
93.262	65613.17794
93.479	65521.43237
93.695	65528.30326
93.911	65562.68203
94.128	65613.17794
94.344	65475.66745
94.56	65514.56308
94.777	65661.46126
94.993	65592.50987
95.209	65487.10201
95.426	65334.24301
95.642	65615.4753
95.858	65576.44491
96.074	65560.38885
96.29	65626.96489
96.506	65555.80303
96.723	65537.46697
96.939	65608.58375
97.155	65597.10149
97.371	65546.63356
97.587	65578.73936
97.803	65581.03399
98.019	65571.85656
98.235	65514.56308
98.451	65603.9903
98.667	65457.38137
98.883	65594.80559
99.099	65626.96489
99.315	65599.39758
99.53	65539.75835
99.746	65571.85656
99.962	65606.28694
100.178	65562.68203
100.394	65564.97539
100.61	65631.56201
100.825	65516.85266
101.041	65594.80559
101.257	65542.04991
101.473	65546.63356
101.688	65528.30326
101.904	65585.62379
102.12	65553.51039
102.335	65539.75835
102.551	65585.62379
102.766	65493.96487
102.982	65571.85656
103.198	65592.50987
103.413	65551.21793
103.629	65583.3288
103.844	65576.44491
104.06	65564.97539
104.275	65512.27368
104.49	65530.59392
104.706	65603.9903
104.921	64967.76317
105.137	65551.21793
105.352	65484.81474
105.567	65564.97539
105.783	65542.04991
105.998	65535.17578
106.213	65516.85266
106.429	65601.69385
106.644	65585.62379
106.859	65544.34164
107.074	65418.56085
107.29	65603.9903
107.505	65569.56265
107.72	65498.541
107.935	65503.11785
108.15	65535.17578
108.365	65615.4753
108.58	65512.27368
108.795	65505.40654
109.01	65512.27368
109.226	65636.15986
109.441	65398.02928
109.656	65615.4753
109.871	65448.24256
110.085	65516.85266
110.3	65546.63356
110.515	65624.66661
110.73	65461.95183
110.945	65574.15064
111.16	65516.85266
111.375	65521.43237
111.59	65569.56265
111.804	65539.75835
112.019	65542.04991
112.234	65578.73936
112.449	65516.85266
112.663	65555.80303
112.878	65578.73936
113.093	65558.09585
113.308	65471.09487
113.522	65555.80303
113.737	65677.57381
113.951	65526.01279
114.166	65558.09585
114.381	65546.63356
114.595	65569.56265
114.81	65539.75835
115.024	65553.51039
115.239	65526.01279
115.453	65587.91897
115.668	65571.85656
115.882	65519.14243
116.097	65571.85656
116.311	65654.55866
116.525	65546.63356
116.74	65661.46126
116.954	65509.98445
117.169	65558.09585
117.383	65539.75835
117.597	65496.25285
117.811	65555.80303
118.026	65471.09487
118.24	65507.69541
118.454	65560.38885
118.668	65562.68203
118.883	65562.68203
119.097	65544.34164
119.311	65544.34164
119.525	65546.63356
119.739	65551.21793
119.953	65571.85656
120.167	65429.97339
120.381	65581.03399
120.595	65546.63356
120.809	65587.91897
121.023	65532.88476
121.237	65571.85656
121.451	65581.03399
121.665	65576.44491
121.879	65544.34164
122.093	65480.24074
122.307	65652.25816
122.521	65592.50987
122.735	65480.24074
122.949	65576.44491
123.163	65631.56201
123.376	65514.56308
123.59	65493.96487
123.804	65551.21793
124.018	65587.91897
124.231	65599.39758
124.445	65622.3685
124.659	65477.95401
124.872	65459.66651
125.086	65555.80303
125.3	65551.21793
125.513	65532.88476
125.727	65587.91897
125.94	65535.17578
126.154	65555.80303
126.368	65603.9903
126.581	65578.73936
126.795	65587.91897
127.008	65583.3288
127.222	65615.4753
127.435	65603.9903
127.648	65601.69385
127.862	65530.59392
128.075	65594.80559
128.289	65512.27368
128.502	65606.28694
128.715	65542.04991
128.929	65656.85934
129.142	65583.3288
129.355	65553.51039
129.568	65491.67707
129.782	65530.59392
129.995	65475.66745
130.208	65576.44491
130.421	65597.10149
130.634	65590.21433
130.848	65512.27368
131.061	65475.66745
131.274	65516.85266
131.487	65615.4753
131.7	65587.91897
131.913	65514.56308
132.126	65560.38885
132.339	65464.23732
132.552	65375.23294
132.765	65482.52765
132.978	65560.38885
133.191	65583.3288
133.404	65519.14243
133.617	65578.73936
133.83	65530.59392
134.043	65608.58375
134.255	65633.86084
134.468	65532.88476
134.681	65629.26336
134.894	65670.66732
135.107	65599.39758
135.319	65521.43237
135.532	65548.92566
135.745	65514.56308
135.958	65567.26893
136.17	65640.75846
136.383	65544.34164
136.596	65592.50987
136.808	65564.97539
137.021	65503.11785
137.233	65594.80559
137.446	65537.46697
137.659	65576.44491
137.871	65427.69053
138.084	65567.26893
138.296	65528.30326
138.509	65562.68203
138.721	65597.10149
138.934	65544.34164
139.146	65530.59392
139.358	65590.21433
139.571	65468.80885
139.783	65473.38107
139.996	65548.92566
140.208	65493.96487
140.42	65500.82934
140.632	65528.30326
140.845	65581.03399
141.057	65640.75846
141.269	65587.91897
141.481	65562.68203
141.694	65608.58375
141.906	65542.04991
142.118	65659.16021
142.33	65535.17578
142.542	65615.4753
142.754	65523.72249
142.967	65647.65773
143.179	65601.69385
143.391	65489.38945
143.603	65581.03399
143.815	65477.95401
144.027	65558.09585
144.239	65450.527
144.451	65548.92566
144.663	65560.38885
144.875	65484.81474
145.086	65452.81161
145.298	65505.40654
145.51	65583.3288
145.722	65487.10201
145.934	65576.44491
146.146	65581.03399
146.358	65564.97539
146.569	65615.4753
146.781	65530.59392
146.993	65613.17794
147.205	65466.523
147.416	65567.26893
147.628	65558.09585
147.84	65516.85266
148.051	65564.97539
148.263	65530.59392
148.475	65603.9903
148.686	65569.56265
148.898	65493.96487
149.109	65477.95401
149.321	65606.28694
149.532	65484.81474
149.744	65542.04991
149.955	65519.14243
150.167	65574.15064
150.378	65560.38885
150.59	65590.21433
150.801	65629.26336
151.013	65615.4753
151.224	65477.95401
151.435	65564.97539
151.647	65477.95401
151.858	65532.88476
152.069	65564.97539
152.281	65567.26893
152.492	65537.46697
152.703	65571.85656
152.914	65436.82301
153.126	65532.88476
153.337	65537.46697
153.548	65633.86084
153.759	65528.30326
153.97	65613.17794
154.181	65597.10149
154.392	65507.69541
154.604	65624.66661
154.815	65587.91897
155.026	65521.43237
155.237	65564.97539
155.448	65457.38137
155.659	65539.75835
155.87	65546.63356
156.081	65526.01279
156.292	65594.80559
156.502	65626.96489
156.713	65523.72249
156.924	65500.82934
157.135	65544.34164
157.346	65560.38885
157.557	65523.72249
157.768	65590.21433
157.978	65631.56201
158.189	65535.17578
158.4	65597.10149
158.611	65535.17578
158.821	65484.81474
159.032	65574.15064
159.243	65505.40654
159.453	65553.51039
159.664	65553.51039
159.875	65514.56308
160.085	65590.21433
160.296	65514.56308
160.507	65574.15064
160.717	65599.39758
160.928	65512.27368
161.138	65716.74231
161.349	65571.85656
161.559	65638.45907
161.77	65569.56265
161.98	65592.50987
162.19	65519.14243
162.401	65574.15064
162.611	65507.69541
162.822	65581.03399
163.032	65574.15064
163.242	65587.91897
163.453	65507.69541
163.663	65610.88075
163.873	65535.17578
164.084	65597.10149
164.294	65608.58375
164.504	65558.09585
164.714	65539.75835
164.924	65542.04991
165.135	65592.50987
165.345	65512.27368
165.555	65551.21793
165.765	65498.541
165.975	65507.69541
166.185	65555.80303
166.395	65583.3288
166.605	65624.66661
166.815	65613.17794
167.025	65571.85656
167.235	65473.38107
167.445	65670.66732
167.655	65535.17578
167.865	65564.97539
168.075	65548.92566
168.285	65564.97539
168.495	65546.63356
168.705	65482.52765
168.915	65457.38137
169.124	65521.43237
169.334	65523.72249
169.544	65528.30326
169.754	65564.97539
169.964	65519.14243
170.173	65493.96487
170.383	65539.75835
170.593	65546.63356
170.802	65503.11785
171.012	65606.28694
171.222	65569.56265
171.431	65610.88075
171.641	65576.44491
171.851	65631.56201
172.06	65590.21433
172.27	65592.50987
172.479	65526.01279
172.689	65587.91897
172.898	65535.17578
173.108	65578.73936
173.317	65512.27368
173.527	65617.77285
173.736	65622.3685
173.945	65548.92566
174.155	65509.98445
174.364	65512.27368
174.574	65548.92566
174.783	65560.38885
174.992	65498.541
175.202	65558.09585
175.411	65500.82934
175.62	65587.91897
175.829	65601.69385
176.039	65537.46697
176.248	65507.69541
176.457	65560.38885
176.666	65475.66745
176.875	65592.50987
177.084	65521.43237
177.294	65599.39758
177.503	65613.17794
177.712	65471.09487
177.921	65594.80559
178.13	65562.68203
178.339	65649.95785
178.548	65583.3288
178.757	65551.21793
178.966	65512.27368
179.175	65526.01279
179.384	65569.56265
179.593	65546.63356
179.802	65624.66661
180.011	65551.21793
180.219	65571.85656
180.428	65542.04991
180.637	65542.04991
180.846	65512.27368
181.055	65544.34164
181.263	65569.56265
181.472	65466.523
181.681	65599.39758
181.89	65535.17578
182.098	65468.80885
182.307	65576.44491
182.516	65537.46697
182.724	65553.51039
182.933	65516.85266
183.142	65640.75846
183.35	65537.46697
183.559	65544.34164
183.767	65560.38885
183.976	65590.21433
184.184	65603.9903
184.393	65530.59392
184.601	65590.21433
184.81	65471.09487
185.018	65594.80559
185.227	65532.88476
185.435	65613.17794
185.644	65516.85266
185.852	65659.16021
186.06	65514.56308
186.269	65514.56308
186.477	65509.98445
186.685	65558.09585
186.894	65468.80885
187.102	65553.51039
187.31	65484.81474
187.518	65558.09585
187.727	65643.05803
187.935	65620.07059
188.143	65560.38885
188.351	65528.30326
188.559	65620.07059
188.768	65482.52765
188.976	65503.11785
189.184	65519.14243
189.392	65516.85266
189.6	65526.01279
189.808	65445.9583
190.016	65587.91897
190.224	65576.44491
190.432	65546.63356
190.64	65551.21793
190.848	65542.04991
191.056	65493.96487
191.264	65532.88476
191.472	65558.09585
191.679	65574.15064
191.887	65567.26893
192.095	65649.95785
192.303	65530.59392
192.511	65581.03399
192.719	65656.85934
192.926	65500.82934
193.134	65656.85934
193.342	65585.62379
193.55	65564.97539
193.757	65558.09585
193.965	65535.17578
194.173	65519.14243
194.38	65624.66661
194.588	65599.39758
194.796	65578.73936
195.003	65503.11785
195.211	65599.39758
195.418	65581.03399
195.626	65647.65773
195.833	65542.04991
196.041	65498.541
196.248	65558.09585
196.456	65500.82934
196.663	65457.38137
196.871	65587.91897
197.078	65539.75835
197.285	65564.97539
197.493	65539.75835
197.7	65420.84301
197.908	65532.88476
198.115	65574.15064
198.322	65544.34164
198.529	65615.4753
198.737	65633.86084
198.944	65539.75835
199.151	65631.56201
199.358	65597.10149
199.566	65675.27146
199.773	65466.523
199.98	65562.68203
200.187	65592.50987
200.394	65555.80303
200.601	65434.53963
200.809	65645.35778
201.016	65532.88476
201.223	65526.01279
201.43	65640.75846
201.637	65583.3288
201.844	65587.91897
202.051	65661.46126
202.258	65537.46697
202.465	65578.73936
202.672	65649.95785
202.878	65555.80303
203.085	65583.3288
203.292	65537.46697
203.499	65507.69541
203.706	65555.80303
203.913	65553.51039
204.12	65615.4753
204.326	65597.10149
204.533	65608.58375
204.74	65498.541
204.947	65546.63356
205.153	65558.09585
205.36	65542.04991
205.567	65647.65773
205.773	65640.75846
205.98	65519.14243
206.187	65562.68203
206.393	65553.51039
206.6	65576.44491
206.806	65617.77285
207.013	65491.67707
207.22	65498.541
207.426	65608.58375
207.633	65548.92566
207.839	65482.52765
208.046	65514.56308
208.252	65516.85266
208.458	65512.27368
208.665	65539.75835
208.871	65578.73936
209.078	65471.09487
209.284	65562.68203
209.49	65574.15064
209.697	65576.44491
209.903	65615.4753
210.109	65581.03399
210.316	65514.56308
210.522	65594.80559
210.728	65532.88476
210.934	65336.51877
211.14	65576.44491
211.347	65636.15986
211.553	65521.43237
211.759	65544.34164
211.965	65498.541
212.171	65521.43237
212.377	65487.10201
212.583	65548.92566
212.789	65585.62379
212.996	65535.17578
213.202	65500.82934
213.408	65542.04991
213.614	65548.92566
213.82	65597.10149
214.025	65581.03399
214.231	65626.96489
214.437	65585.62379
214.643	65482.52765
214.849	65546.63356
215.055	65553.51039
215.261	65610.88075
215.467	65544.34164
215.672	65624.66661
215.878	65484.81474
216.084	65603.9903
216.29	65544.34164
216.496	65468.80885
216.701	65512.27368
216.907	65606.28694
217.113	65546.63356
217.318	65477.95401
217.524	65590.21433
217.73	65601.69385
217.935	65569.56265
218.141	65516.85266
218.346	65535.17578
218.552	65567.26893
218.758	65535.17578
218.963	65523.72249
219.169	65532.88476
219.374	65544.34164
219.58	65544.34164
219.785	65564.97539
219.991	65491.67707
220.196	65645.35778
220.401	65578.73936
220.607	65548.92566
220.812	65464.23732
221.017	65553.51039
221.223	65500.82934
221.428	65475.66745
221.633	65496.25285
221.839	65544.34164
222.044	65603.9903
222.249	65535.17578
222.454	65528.30326
222.66	65530.59392
222.865	65576.44491
223.07	65429.97339
223.275	65551.21793
223.48	65519.14243
223.686	65603.9903
223.891	65633.86084
224.096	65626.96489
224.301	65443.67422
224.506	65599.39758
224.711	65505.40654
224.916	65585.62379
225.121	65578.73936
225.326	65576.44491
225.531	65603.9903
225.736	65583.3288
225.941	65613.17794
226.146	65562.68203
226.351	65532.88476
226.555	65530.59392
226.76	65526.01279
226.965	65629.26336
227.17	65571.85656
227.375	65594.80559
227.58	65578.73936
227.784	65509.98445
227.989	65668.36552
228.194	65590.21433
228.399	65519.14243
228.603	65610.88075
228.808	65585.62379
229.013	65496.25285
229.217	65548.92566
229.422	65601.69385
229.627	65562.68203
229.831	65583.3288
230.036	65514.56308
230.24	65542.04991
230.445	65519.14243
230.649	65542.04991
230.854	65532.88476
231.058	65571.85656
231.263	65560.38885
231.467	65528.30326
231.672	65567.26893
231.876	65548.92566
232.081	65498.541
232.285	65521.43237
232.489	65519.14243
232.694	65587.91897
232.898	65498.541
233.102	65455.0964
233.307	65542.04991
233.511	65564.97539
233.715	65516.85266
233.919	65493.96487
234.124	65608.58375
234.328	65647.65773
234.532	65544.34164
234.736	65505.40654
234.94	65599.39758
235.145	65539.75835
235.349	65528.30326
235.553	65434.53963
235.757	65443.67422
235.961	65601.69385
236.165	65594.80559
236.369	65509.98445
236.573	65512.27368
236.777	65608.58375
236.981	65535.17578
237.185	65471.09487
237.389	65569.56265
237.593	65548.92566
237.797	65519.14243
238.001	65514.56308
238.205	65530.59392
238.409	65585.62379
238.612	65590.21433
238.816	65427.69053
239.02	65553.51039
239.224	65567.26893
239.428	65516.85266
239.631	65539.75835
239.835	65523.72249
240.039	65553.51039
240.243	65503.11785
240.446	65477.95401
240.65	65603.9903
240.854	65702.91196
241.057	65528.30326
241.261	65603.9903
241.464	65624.66661
241.668	65500.82934
241.872	65590.21433
242.075	65551.21793
242.279	65539.75835
242.482	65587.91897
242.686	65578.73936
242.889	65487.10201
243.093	65590.21433
243.296	65493.96487
243.499	65551.21793
243.703	65553.51039
243.906	65613.17794
244.11	65523.72249
244.313	65558.09585
244.516	65532.88476
244.72	65493.96487
244.923	65615.4753
245.126	65459.66651
245.33	65530.59392
245.533	65606.28694
245.736	65532.88476
245.939	65569.56265
246.142	65537.46697
246.346	65585.62379
246.549	65631.56201
246.752	65590.21433
246.955	65567.26893
247.158	65526.01279
247.361	65571.85656
247.564	65512.27368
247.767	65471.09487
247.971	65553.51039
248.174	65521.43237
248.377	65571.85656
248.58	65631.56201
248.783	65597.10149
248.985	65558.09585
249.188	65571.85656
249.391	65523.72249
249.594	65553.51039
249.797	65601.69385
250	65473.38107
250.203	65569.56265
250.406	65576.44491
250.609	65603.9903
250.811	65581.03399
251.014	65581.03399
251.217	65613.17794
251.42	65597.10149
251.622	65429.97339
251.825	65493.96487
252.028	65581.03399
252.231	65585.62379
252.433	65599.39758
252.636	65491.67707
252.838	65519.14243
253.041	65555.80303
253.244	65505.40654
253.446	65455.0964
253.649	65542.04991
253.851	65498.541
254.054	65576.44491
254.256	65489.38945
254.459	65581.03399
254.661	65523.72249
254.864	65601.69385
255.066	65398.02928
255.269	65560.38885
255.471	65526.01279
255.673	65509.98445
255.876	65581.03399
256.078	65526.01279
256.281	65537.46697
256.483	65553.51039
256.685	65608.58375
256.887	65544.34164
257.09	65535.17578
257.292	65599.39758
257.494	65509.98445
257.696	65569.56265
257.899	65599.39758
258.101	65457.38137
258.303	65530.59392
258.505	65629.26336
258.707	65562.68203
258.909	65590.21433
259.111	65649.95785
259.314	65530.59392
259.516	65581.03399
259.718	65493.96487
259.92	65539.75835
260.122	65567.26893
260.324	65581.03399
260.526	65473.38107
260.728	65537.46697
260.93	65519.14243
261.131	65636.15986
261.333	65594.80559
261.535	65558.09585
261.737	65585.62379
261.939	65512.27368
262.141	65548.92566
262.343	65505.40654
262.544	65523.72249
262.746	65523.72249
262.948	65606.28694
263.15	65555.80303
263.352	65484.81474
263.553	65553.51039
263.755	65606.28694
263.957	65480.24074
264.158	65516.85266
264.36	65539.75835
264.562	65503.11785
264.763	65590.21433
264.965	65521.43237
265.166	65574.15064
265.368	65477.95401
265.569	65583.3288
265.771	65578.73936
265.972	65514.56308
266.174	65583.3288
266.375	65569.56265
266.577	65555.80303
266.778	65523.72249
266.98	65553.51039
267.181	65603.9903
267.383	65624.66661
267.584	65475.66745
267.785	65560.38885
267.987	65581.03399
268.188	65629.26336
268.389	65514.56308
268.591	65624.66661
268.792	65622.3685
268.993	65526.01279
269.194	65581.03399
269.396	65489.38945
269.597	65542.04991
269.798	65592.50987
269.999	65539.75835
270.2	65622.3685
270.401	65484.81474
270.603	65583.3288
270.804	65599.39758
271.005	65601.69385
271.206	65553.51039
271.407	65526.01279
271.608	65480.24074
271.809	65558.09585
272.01	65544.34164
272.211	65571.85656
272.412	65509.98445
272.613	65503.11785
272.814	65606.28694
273.015	65578.73936
273.216	65599.39758
273.416	65574.15064
273.617	65498.541
273.818	65523.72249
274.019	65567.26893
274.22	65507.69541
274.421	65537.46697
274.621	65574.15064
274.822	65539.75835
275.023	65544.34164
275.224	65551.21793
275.424	65633.86084
275.625	65666.06392
275.826	65560.38885
276.026	65603.9903
276.227	65567.26893
276.428	65519.14243
276.628	65512.27368
276.829	65514.56308
277.029	65567.26893
277.23	65544.34164
277.43	65521.43237
277.631	65477.95401
277.831	65636.15986
278.032	65613.17794
278.232	65567.26893
278.433	65583.3288
278.633	65475.66745
278.834	65585.62379
279.034	65514.56308
279.234	65484.81474
279.435	65555.80303
279.635	65535.17578
279.835	65562.68203
280.036	65473.38107
280.236	65647.65773
280.436	65583.3288
280.637	65555.80303
280.837	65489.38945
281.037	65560.38885
281.237	65560.38885
281.438	65574.15064
281.638	65583.3288
281.838	65578.73936
282.038	65578.73936
282.238	65555.80303
282.438	65564.97539
282.638	65562.68203
282.838	65581.03399
283.038	65535.17578
283.239	65576.44491
283.439	65558.09585
283.639	65461.95183
283.839	65592.50987
284.039	65532.88476
284.238	65558.09585
284.438	65514.56308
284.638	65608.58375
284.838	65585.62379
285.038	65587.91897
285.238	65610.88075
285.438	65551.21793
285.638	65548.92566
285.838	65553.51039
286.037	65519.14243
286.237	65592.50987
286.437	65599.39758
286.637	65576.44491
286.836	65574.15064
287.036	65624.66661
287.236	65521.43237
287.436	65608.58375
287.635	65544.34164
287.835	65553.51039
288.034	65558.09585
288.234	65464.23732
288.434	65530.59392
288.633	65567.26893
288.833	65601.69385
289.032	65656.85934
289.232	65544.34164
289.431	65544.34164
289.631	65581.03399
289.83	65475.66745
290.03	65603.9903
290.229	65592.50987
290.429	65663.76249
290.628	65493.96487
290.828	65626.96489
291.027	65649.95785
291.226	65576.44491
291.426	65537.46697
291.625	65420.84301
291.824	65571.85656
292.024	65571.85656
292.223	65603.9903
292.422	65562.68203
292.621	65581.03399
292.821	65528.30326
293.02	65567.26893
293.219	65496.25285
293.418	65601.69385
293.617	65507.69541
293.817	65594.80559
294.016	65466.523
294.215	65498.541
294.414	65640.75846
294.613	65576.44491
294.812	65562.68203
295.011	65590.21433
295.21	65539.75835
295.409	65629.26336
295.608	65675.27146
295.807	65594.80559
296.006	65530.59392
296.205	65564.97539
296.404	65429.97339
296.603	65583.3288
296.802	65468.80885
297.001	65592.50987
297.2	65590.21433
297.398	65608.58375
297.597	65496.25285
297.796	65633.86084
297.995	65617.77285
298.194	65514.56308
298.392	65578.73936
298.591	65571.85656
298.79	65615.4753
298.988	65583.3288
299.187	65578.73936
299.386	65548.92566
299.585	65567.26893
299.783	65551.21793
299.982	65487.10201
300.18	65585.62379
300.379	65574.15064
300.578	65576.44491
300.776	65633.86084
300.975	65539.75835
301.173	65482.52765
301.372	65567.26893
301.57	65585.62379
301.769	65590.21433
301.967	65519.14243
302.166	65567.26893
302.364	65610.88075
302.562	65562.68203
302.761	65516.85266
302.959	65571.85656
303.157	65526.01279
303.356	65599.39758
303.554	65507.69541
303.752	65567.26893
303.951	65532.88476
304.149	65445.9583
304.347	65539.75835
304.546	65509.98445
304.744	65546.63356
304.942	65530.59392
305.14	65599.39758
305.338	65624.66661
305.536	65576.44491
305.735	65578.73936
305.933	65585.62379
306.131	65594.80559
306.329	65507.69541
306.527	65624.66661
306.725	65571.85656
306.923	65519.14243
307.121	65461.95183
307.319	65597.10149
307.517	65599.39758
307.715	65548.92566
307.913	65439.10657
308.111	65526.01279
308.309	65542.04991
308.507	65574.15064
308.705	65562.68203
308.903	65617.77285
309.1	65498.541
309.298	65503.11785
309.496	65544.34164
309.694	65581.03399
309.892	65606.28694
310.089	65613.17794
310.287	65562.68203
310.485	65592.50987
310.683	65548.92566
310.88	65567.26893
311.078	65574.15064
311.276	65509.98445
311.473	65560.38885
311.671	65551.21793
311.869	65507.69541
312.066	65558.09585
312.264	65555.80303
312.461	65477.95401
312.659	65498.541
312.856	65509.98445
313.054	65587.91897
313.251	65583.3288
313.449	65496.25285
313.646	65564.97539
313.844	65608.58375
314.041	65564.97539
314.239	65493.96487
314.436	65484.81474
314.634	65452.81161
314.831	65509.98445
315.028	65631.56201
315.226	65564.97539
315.423	65493.96487
315.62	65599.39758
315.817	65546.63356
316.015	65439.10657
316.212	65594.80559
316.409	65514.56308
316.606	65530.59392
316.804	65576.44491
317.001	65610.88075
317.198	65512.27368
317.395	65512.27368
317.592	65512.27368
317.789	65562.68203
317.987	65539.75835
318.184	65592.50987
318.381	65629.26336
318.578	65514.56308
318.775	65624.66661
318.972	65620.07059
319.169	65617.77285
319.366	65509.98445
319.563	65546.63356
319.76	65585.62379
319.957	65576.44491
320.154	65590.21433
320.351	65507.69541
320.547	65530.59392
320.744	65569.56265
320.941	65448.24256
321.138	65562.68203
321.335	65548.92566
321.532	65597.10149
321.728	65516.85266
321.925	65615.4753
322.122	65436.82301
322.319	65663.76249
322.515	65507.69541
322.712	65521.43237
322.909	65633.86084
323.105	65638.45907
323.302	65498.541
323.499	65477.95401
323.695	65526.01279
323.892	65555.80303
324.089	65512.27368
324.285	65578.73936
324.482	65587.91897
324.678	65638.45907
324.875	65592.50987
325.071	65542.04991
325.268	65546.63356
325.464	65571.85656
325.661	65551.21793
325.857	65564.97539
326.054	65599.39758
326.25	65526.01279
326.446	65523.72249
326.643	65544.34164
326.839	65567.26893
327.035	65647.65773
327.232	65498.541
327.428	65643.05803
327.624	65636.15986
327.821	65553.51039
328.017	65613.17794
328.213	65590.21433
328.409	65553.51039
328.606	65532.88476
328.802	65535.17578
328.998	65569.56265
329.194	65631.56201
329.39	65509.98445
329.586	65553.51039
329.783	65514.56308
329.979	65542.04991
330.175	65571.85656
330.371	65553.51039
330.567	65569.56265
330.763	65542.04991
330.959	65606.28694
331.155	65578.73936
331.351	65587.91897
331.547	65523.72249
331.743	65663.76249
331.939	65560.38885
332.135	65587.91897
332.33	65487.10201
332.526	65551.21793
332.722	65535.17578
332.918	65503.11785
333.114	65606.28694
333.31	65450.527
333.506	65477.95401
333.701	65555.80303
333.897	65666.06392
334.093	65512.27368
334.289	65617.77285
334.484	65452.81161
334.68	65468.80885
334.876	65496.25285
335.071	65562.68203
335.267	65491.67707
335.463	65574.15064
335.658	65571.85656
335.854	65682.17907
336.049	65558.09585
336.245	65587.91897
336.441	65583.3288
336.636	65535.17578
336.832	65516.85266
337.027	65434.53963
337.223	65622.3685
337.418	65480.24074
337.613	65613.17794
337.809	65530.59392
338.004	65606.28694
338.2	65548.92566
338.395	65599.39758
338.591	65505.40654
338.786	65613.17794
338.981	65608.58375
339.177	65617.77285
339.372	65544.34164
339.567	65484.81474
339.762	65516.85266
339.958	65684.48198
340.153	65643.05803
340.348	65015.03032
340.543	65564.97539
340.739	65608.58375
340.934	65578.73936
341.129	65526.01279
341.324	65526.01279
341.519	65633.86084
341.714	65698.30335
341.909	65613.17794
342.104	65553.51039
342.299	65562.68203
342.495	65585.62379
342.69	65603.9903
342.885	65590.21433
343.08	65304.67368
343.275	65471.09487
343.469	65574.15064
343.664	65519.14243
343.859	65562.68203
344.054	65624.66661
344.249	65606.28694
344.444	65551.21793
344.639	65585.62379
344.834	65610.88075
345.029	65558.09585
345.223	65532.88476
345.418	65613.17794
345.613	65544.34164
345.808	65562.68203
346.003	65567.26893
346.197	65562.68203
346.392	65546.63356
346.587	65450.527
346.781	65576.44491
346.976	65535.17578
347.171	65480.24074
347.365	65585.62379
347.56	65583.3288
347.755	65505.40654
347.949	65581.03399
348.144	65610.88075
348.338	65548.92566
348.533	65544.34164
348.727	65594.80559
348.922	65512.27368
349.116	65626.96489
349.311	65555.80303
349.505	65626.96489
349.7	65610.88075
349.894	65599.39758
350.089	65535.17578
350.283	65569.56265
350.477	65553.51039
350.672	65571.85656
350.866	65493.96487
351.06	65548.92566
351.255	65553.51039
351.449	65558.09585
351.643	65558.09585
351.837	65514.56308
352.032	65654.55866
352.226	65603.9903
352.42	65608.58375
352.614	65491.67707
352.809	65594.80559
353.003	65551.21793
353.197	65537.46697
353.391	65574.15064
353.585	65539.75835
353.779	65636.15986
353.973	65491.67707
354.167	65528.30326
354.361	65615.4753
354.555	65503.11785
354.749	65571.85656
354.943	65594.80559
355.137	65530.59392
355.331	65578.73936
355.525	65592.50987
355.719	65530.59392
355.913	65569.56265
356.107	65542.04991
356.301	65571.85656
356.495	65567.26893
356.689	65558.09585
356.883	65530.59392
357.076	65626.96489
357.27	65496.25285
357.464	65592.50987
357.658	65493.96487
357.852	65564.97539
358.045	65532.88476
358.239	65606.28694
358.433	65581.03399
358.626	65592.50987
358.82	65564.97539
359.014	65544.34164
359.207	65553.51039
359.401	65645.35778
359.595	65532.88476
359.788	65585.62379
359.982	65558.09585
360.175	65523.72249
360.369	65581.03399
360.563	65553.51039
360.756	65564.97539
360.95	65542.04991
361.143	65652.25816
361.336	65702.91196
361.53	65608.58375
361.723	65594.80559
361.917	65537.46697
362.11	65597.10149
362.304	65571.85656
362.497	65562.68203
362.69	65436.82301
362.884	65546.63356
363.077	65585.62379
363.27	65578.73936
363.464	65553.51039
363.657	65594.80559
363.85	65512.27368
364.043	65581.03399
364.237	65553.51039
364.43	65526.01279
364.623	65521.43237
364.816	65610.88075
365.009	65500.82934
365.202	65585.62379
365.396	65484.81474
365.589	65546.63356
365.782	65546.63356
365.975	65626.96489
366.168	65516.85266
366.361	65480.24074
366.554	65562.68203
366.747	65594.80559
366.94	65528.30326
367.133	65567.26893
367.326	65578.73936
367.519	65581.03399
367.712	65689.08835
367.905	65576.44491
368.098	65601.69385
368.291	65459.66651
368.484	65562.68203
368.676	65532.88476
368.869	65633.86084
369.062	65574.15064
369.255	65558.09585
369.448	65521.43237
369.64	65546.63356
369.833	65585.62379
370.026	65512.27368
370.219	65629.26336
370.411	65457.38137
370.604	65643.05803
370.797	65546.63356
370.989	65519.14243
371.182	65636.15986
371.375	65507.69541
371.567	65537.46697
371.76	65569.56265
371.952	65638.45907
372.145	65542.04991
372.338	65535.17578
372.53	65544.34164
372.723	65622.3685
372.915	65569.56265
373.108	65597.10149
373.3	65530.59392
373.493	65523.72249
373.685	65521.43237
373.877	65615.4753
374.07	65505.40654
374.262	65496.25285
374.455	65606.28694
374.647	65663.76249
374.839	65498.541
375.032	65553.51039
375.224	65553.51039
375.416	65613.17794
375.609	65116.553
375.801	65560.38885
375.993	65606.28694
376.185	65617.77285
376.378	65569.56265
376.57	65548.92566
376.762	65544.34164
376.954	65530.59392
377.146	65516.85266
377.338	65608.58375
377.53	65599.39758
377.723	65514.56308
377.915	65603.9903
378.107	65562.68203
378.299	65594.80559
378.491	65590.21433
378.683	65544.34164
378.875	65585.62379
379.067	65496.25285
379.259	65523.72249
379.451	65571.85656
379.643	65507.69541
379.835	65537.46697
380.027	65491.67707
380.219	65603.9903
380.41	65558.09585
380.602	65551.21793
380.794	65649.95785
380.986	65594.80559
381.178	65564.97539
381.37	65571.85656
381.561	65555.80303
381.753	65473.38107
381.945	65487.10201
382.137	65553.51039
382.328	65583.3288
382.52	65594.80559
382.712	65587.91897
382.903	65491.67707
383.095	65574.15064
383.287	65620.07059
383.478	65532.88476
383.67	65592.50987
383.862	65551.21793
384.053	65544.34164
384.245	65590.21433
384.436	65521.43237
384.628	65548.92566
384.819	65576.44491
385.011	65516.85266
385.202	65569.56265
385.394	65590.21433
385.585	65464.23732
385.777	65585.62379
385.968	65626.96489
386.159	65562.68203
386.351	65555.80303
386.542	65528.30326
386.734	65480.24074
386.925	65581.03399
387.116	65539.75835
387.308	65544.34164
387.499	65606.28694
387.69	65521.43237
387.881	65480.24074
388.073	65555.80303
388.264	65553.51039
388.455	65640.75846
388.646	65507.69541
388.837	65526.01279
389.029	65548.92566
389.22	65574.15064
389.411	65594.80559
389.602	65551.21793
389.793	65585.62379
389.984	65564.97539
390.175	65535.17578
390.366	65521.43237
390.557	65617.77285
390.748	65558.09585
390.939	65633.86084
391.13	65581.03399
391.321	65544.34164
391.512	65576.44491
391.703	65562.68203
391.894	65590.21433
392.085	65613.17794
392.276	65603.9903
392.467	65617.77285
392.658	65599.39758
392.849	65553.51039
393.039	65583.3288
393.23	65567.26893
393.421	65542.04991
393.612	65558.09585
393.803	65564.97539
393.993	65464.23732
394.184	65528.30326
394.375	65615.4753
394.566	65553.51039
394.756	65542.04991
394.947	65505.40654
395.138	65587.91897
395.328	65491.67707
395.519	65512.27368
395.709	65617.77285
395.9	65459.66651
396.091	65587.91897
396.281	65590.21433
396.472	65583.3288
396.662	65608.58375
396.853	65599.39758
397.043	65581.03399
397.234	65585.62379
397.424	65539.75835
397.615	65539.75835
397.805	65548.92566
397.996	65638.45907
398.186	65503.11785
398.376	65484.81474
398.567	65597.10149
398.757	65567.26893
398.947	65698.30335
399.138	65514.56308
399.328	65503.11785
399.518	65620.07059
399.709	65649.95785
399.899	65562.68203
400.089	65599.39758
400.279	65553.51039
400.47	65560.38885
400.66	65558.09585
400.85	65487.10201
401.04	65523.72249
401.23	65498.541
401.421	65537.46697
401.611	65581.03399
401.801	65521.43237
401.991	65553.51039
402.181	65571.85656
402.371	65539.75835
402.561	65491.67707
402.751	65574.15064
402.941	65526.01279
403.131	65484.81474
403.321	65594.80559
403.511	65544.34164
403.701	65514.56308
403.891	65553.51039
404.081	65551.21793
404.271	65601.69385
404.461	65482.52765
404.651	65610.88075
404.84	65532.88476
405.03	65523.72249
405.22	65599.39758
405.41	65587.91897
405.6	65500.82934
405.789	65505.40654
405.979	65489.38945
406.169	65629.26336
406.359	65562.68203
406.548	65613.17794
406.738	65613.17794
406.928	65487.10201
407.118	65521.43237
407.307	65507.69541
407.497	65555.80303
407.686	65498.541
407.876	65606.28694
408.066	65585.62379
408.255	65594.80559
408.445	65587.91897
408.634	65514.56308
408.824	65535.17578
409.013	65578.73936
409.203	65500.82934
409.392	65535.17578
409.582	65539.75835
409.771	65633.86084
409.961	65592.50987
410.15	65521.43237
410.34	65532.88476
410.529	65608.58375
410.718	65548.92566
410.908	65420.84301
411.097	65608.58375
411.286	65592.50987
411.476	65622.3685
411.665	65583.3288
411.854	65574.15064
412.044	65617.77285
412.233	65532.88476
412.422	65532.88476
412.611	65551.21793
412.8	65509.98445
412.99	65597.10149
413.179	65516.85266
413.368	65590.21433
413.557	65615.4753
413.746	65567.26893
413.935	65590.21433
414.124	65636.15986
414.313	65500.82934
414.503	65535.17578
414.692	65592.50987
414.881	65480.24074
415.07	65496.25285
415.259	65569.56265
415.448	65493.96487
415.637	65551.21793
415.826	65532.88476
416.015	65624.66661
416.203	65569.56265
416.392	65519.14243
416.581	65581.03399
416.77	65539.75835
416.959	65528.30326
417.148	65587.91897
417.337	65599.39758
417.525	65544.34164
417.714	65526.01279
417.903	65603.9903
418.092	65599.39758
418.281	65532.88476
418.469	65542.04991
418.658	65546.63356
418.847	65576.44491
419.035	65610.88075
419.224	65624.66661
419.413	65601.69385
419.601	65544.34164
419.79	65633.86084
419.979	65569.56265
420.167	65603.9903
420.356	65567.26893
420.544	65530.59392
420.733	65599.39758
420.921	65578.73936
421.11	65530.59392
421.299	65516.85266
421.487	65560.38885
421.675	65555.80303
421.864	65564.97539
422.052	65583.3288
422.241	65464.23732
422.429	65576.44491
422.618	65567.26893
422.806	65544.34164
422.994	65576.44491
423.183	65521.43237
423.371	65576.44491
423.559	65535.17578
423.748	65507.69541
423.936	65581.03399
424.124	65666.06392
424.312	65601.69385
424.501	65544.34164
424.689	65567.26893
424.877	65564.97539
425.065	65562.68203
425.254	65581.03399
425.442	65418.56085
425.63	65487.10201
425.818	65477.95401
426.006	65567.26893
426.194	65473.38107
426.382	65491.67707
426.57	65523.72249
426.758	65539.75835
426.946	65576.44491
427.134	65514.56308
427.323	65592.50987
427.51	65562.68203
427.698	65548.92566
427.886	65519.14243
428.074	65482.52765
428.262	65663.76249
428.45	65553.51039
428.638	65546.63356
428.826	65521.43237
429.014	65594.80559
429.202	65668.36552
429.39	65631.56201
429.577	65491.67707
429.765	65493.96487
429.953	65489.38945
430.141	65564.97539
430.329	65521.43237
430.516	65590.21433
430.704	65429.97339
430.892	65578.73936
431.079	65652.25816
431.267	65493.96487
431.455	65629.26336
431.643	65482.52765
431.83	65530.59392
432.018	65519.14243
432.205	65578.73936
432.393	65626.96489
432.581	65562.68203
432.768	65493.96487
432.956	65498.541
433.143	65539.75835
433.331	65512.27368
433.518	65578.73936
433.706	65560.38885
433.893	65452.81161
434.081	65585.62379
434.268	65468.80885
434.456	65601.69385
434.643	65590.21433
434.83	65503.11785
435.018	65503.11785
435.205	65585.62379
435.392	65585.62379
435.58	65659.16021
435.767	65500.82934
435.954	65555.80303
436.142	65493.96487
436.329	65594.80559
436.516	65576.44491
436.703	65519.14243
436.891	65480.24074
437.078	65505.40654
437.265	65500.82934
437.452	65509.98445
437.639	65544.34164
437.827	65526.01279
438.014	65507.69541
438.201	65560.38885
438.388	65503.11785
438.575	65553.51039
438.762	65555.80303
438.949	65569.56265
439.136	65514.56308
439.323	65461.95183
439.51	65562.68203
439.697	65484.81474
439.884	65489.38945
440.071	65514.56308
440.258	65487.10201
440.445	65498.541
440.632	65304.67368
440.819	65507.69541
441.006	65436.82301
441.193	65521.43237
441.38	65484.81474
441.566	65546.63356
441.753	65555.80303
441.94	65489.38945
442.127	65553.51039
442.314	65473.38107
442.5	65450.527
442.687	65466.523
442.874	65493.96487
443.061	65500.82934
443.247	65484.81474
443.434	65395.74887
443.621	65562.68203
443.807	65507.69541
443.994	65384.3494
444.181	65521.43237
444.367	65551.21793
444.554	65466.523
444.74	65491.67707
444.927	65521.43237
445.114	65464.23732
445.3	65338.7947
445.487	65416.27887
445.673	65432.25642
445.86	65461.95183
446.046	65487.10201
446.233	65450.527
446.419	65482.52765
446.605	65377.51179
446.792	65382.07002
446.978	65521.43237
447.165	65457.38137
447.351	65482.52765
447.537	65496.25285
447.724	65505.40654
447.91	65391.18856
448.096	65416.27887
448.283	65352.45388
448.469	65455.0964
448.655	65439.10657
448.841	65386.62894
449.028	65425.40785
449.214	65411.71543
449.4	65388.90867
449.586	65409.43397
449.773	65382.07002
449.959	65409.43397
450.145	65295.58121
450.331	65425.40785
450.517	65455.0964
450.703	65334.24301
450.889	65427.69053
451.075	65372.95426
451.261	65297.85407
451.447	65291.03599
451.633	65370.67575
451.819	65359.28579
452.005	65288.76364
452.191	65357.00831
452.377	65338.7947
452.563	65316.04309
452.749	65320.59204
452.935	65295.58121
453.121	65256.9684
453.307	65286.49146
453.493	65229.74154
453.679	65270.59089
453.865	65241.08314
454.05	65213.87031
454.236	65259.2384
454.422	65325.14168
454.608	65281.94759
454.794	65302.40031
454.979	65311.49482
455.165	65279.67591
455.351	65220.67127
455.537	65225.20607
455.722	65150.46647
455.908	65232.00953
456.094	65168.56868
456.279	65148.20443
456.465	65114.2934
456.65	65209.33717
456.836	65177.62373
457.022	65166.30533
457.207	65182.15224
457.393	65134.63562
457.578	65186.68141
457.764	65089.44851
457.949	65161.77912
458.135	65100.73922
458.32	65236.546
458.506	65188.94624
458.691	65152.72867
458.877	65132.37472
459.062	65198.00722
459.248	65204.80469
459.433	65080.41884
459.618	65057.85592
459.804	65154.99104
459.989	65062.36722
460.174	65057.85592
460.36	65084.93336
460.545	65098.48075
460.73	65114.2934
460.915	65102.99784
461.101	65112.03397
461.286	65080.41884
461.471	65098.48075
461.656	65211.60366
461.842	65057.85592
462.027	65087.19085
462.212	65057.85592
462.397	65039.81709
462.582	65071.39175
462.767	64970.01242
462.952	65166.30533
463.138	65051.09016
463.323	64974.51138
463.508	65071.39175
463.693	65030.8015
463.878	65062.36722
464.063	64972.26182
464.248	65008.27362
464.433	65008.27362
464.618	65008.27362
464.803	65003.76994
464.988	65006.0217
465.173	64938.53715
465.357	64979.01097
465.542	64983.51119
465.727	64886.89369
465.912	64936.29008
466.097	64992.51351
466.282	64992.51351
466.467	64936.29008
466.651	64891.3812
466.836	64891.3812
467.021	65048.83523
467.206	64943.03175
467.391	65001.51834
467.575	64963.26515
467.76	64954.27097
467.945	64868.9498
468.129	64900.35804
468.314	64862.22336
468.499	64979.01097
468.683	64851.01566
468.868	64931.79641
469.053	64920.56495
469.237	64904.84739
469.422	64851.01566
469.606	64907.09229
469.791	64970.01242
469.975	64889.13737
470.16	64916.07345
470.344	64880.16358
470.529	64952.02281
470.713	64783.84884
470.898	64945.27928
471.082	64907.09229
471.267	64954.27097
471.451	64938.53715
471.636	65055.60051
471.82	64945.27928
472.004	64815.1765
472.189	64934.04317
472.373	65008.27362
472.557	64990.26269
472.742	64976.7611
472.926	64985.76153
473.11	64997.01561
473.295	64902.60264
473.479	64911.58256
473.663	64920.56495
473.847	64983.51119
474.031	64974.51138
474.216	64970.01242
474.4	64994.76448
474.584	64988.01203
474.768	64949.77481
474.952	64884.65017
475.136	64882.4068
475.32	65015.03032
475.505	64902.60264
475.689	64848.77458
475.873	64922.81093
476.057	64913.82793
476.241	64961.01637
476.425	64886.89369
476.609	64851.01566
476.793	64927.30336
476.977	64997.01561
477.161	64891.3812
477.345	64873.43485
477.529	64990.26269
477.713	64835.33127
477.896	64972.26182
478.08	64817.41532
478.264	64884.65017
478.448	64909.33735
478.632	64839.81177
478.816	65048.83523
478.999	64855.49829
479.183	64938.53715
479.367	64907.09229
479.551	64743.61338
479.735	64846.53365
479.918	64882.4068
480.102	64815.1765
480.286	64853.2569
480.469	64920.56495
480.653	64817.41532
480.837	64833.09125
481.02	64859.98151
481.204	64819.65428
481.388	64790.55944
481.571	64692.27102
481.755	64828.61166
481.938	64819.65428
482.122	64855.49829
482.305	64759.25479
482.489	64676.66044
482.673	64721.28107
482.856	64795.03392
483.04	64788.32243
483.223	64779.37586
483.406	64799.509
483.59	64795.03392
483.773	64739.14574
483.957	64819.65428
484.14	64710.12043
484.323	64674.43094
484.507	64716.81637
484.69	64750.31595
484.874	64821.8934
485.057	64768.196
485.24	64723.51364
485.423	64859.98151
485.607	64701.19455
485.79	64759.25479
485.973	64714.58424
486.156	64649.91601
486.34	64665.51439
486.523	64647.68824
486.706	64707.88874
486.889	64779.37586
487.072	64674.43094
487.256	64654.37197
487.439	64714.58424
487.622	64656.60016
487.805	64710.12043
487.988	64681.11988
488.171	64649.91601
488.354	64638.77863
488.537	64703.4258
488.72	64656.60016
488.903	64632.09794
489.086	64685.5799
489.269	64645.46062
489.452	64641.00582
489.635	64589.8168
489.818	64481.01145
490.001	64719.04865
490.184	64678.89009
490.367	64676.66044
490.55	64580.92206
490.732	64474.36078
490.915	64618.74042
491.098	64580.92206
491.281	64705.6572
491.464	64632.09794
491.647	64658.8285
491.829	64665.51439
492.012	64574.2525
492.195	64520.9417
492.378	64609.83828
492.56	64465.49515
492.743	64487.66337
492.926	64458.84737
493.108	64598.71381
493.291	64578.69873
493.474	64441.126
493.656	64456.63172
493.839	64401.2849
494.022	64467.71135
494.204	64396.86083
494.387	64423.4134
494.569	64560.9172
494.752	64430.0546
494.934	64454.4162
495.117	64441.126
495.299	64478.79442
495.482	64410.13467
495.664	64363.6975
495.847	64445.55552
496.029	64485.44592
496.212	64233.54559
496.394	64456.63172
496.576	64410.13467
496.759	64503.18936
496.941	64326.14889
497.123	64171.93757
497.306	64478.79442
497.488	64392.4373
497.67	64461.06316
497.853	64454.4162
498.035	64328.35656
498.217	64262.1838
498.4	64332.77231
498.582	64483.22862
498.764	64407.92202
498.946	64337.18859
499.128	64350.44064
499.311	64379.16995
499.493	64472.14416
499.675	64339.39694
499.857	64301.87321
500.039	64264.38765
500.221	64301.87321
500.403	64282.02318
500.585	64180.73255
500.767	64242.35501
500.949	64282.02318
501.132	64306.28578
501.314	64339.39694
501.496	64198.32866
501.678	64412.34745
501.859	64268.79575
502.041	64259.98008
502.223	64259.98008
502.405	64293.04966
502.587	64196.12869
502.769	64220.33536
502.951	64218.13411
503.133	64246.76049
503.315	64301.87321
503.497	64275.40888
503.678	64266.59164
503.86	64354.85906
504.042	64149.95905
504.224	64180.73255
504.406	64240.15246
504.587	64295.25535
504.769	64248.96343
504.951	64224.73826
505.132	64332.77231
505.314	64266.59164
505.496	64229.14167
505.678	64295.25535
505.859	64277.61351
506.041	64229.14167
506.222	64244.55768
506.404	64240.15246
506.586	64253.3697
506.767	64189.52958
506.949	64297.46117
507.13	64246.76049
507.312	64255.57303
507.493	64114.81981
507.675	64231.34356
507.856	64229.14167
508.038	64319.52666
508.219	64297.46117
508.401	64295.25535
508.582	64200.52875
508.764	64237.95004
508.945	64204.92931
509.126	64293.04966
509.308	64275.40888
509.489	64259.98008
509.671	64317.31951
509.852	64224.73826
510.033	64317.31951
510.214	64290.8441
510.396	64330.56437
510.577	64396.86083
510.758	64213.732
510.94	64224.73826
511.121	64259.98008
511.302	64262.1838
511.483	64297.46117
511.664	64233.54559
511.846	64346.02276
512.027	64264.38765
512.208	64328.35656
512.389	64315.1125
512.57	64231.34356
512.751	64268.79575
512.932	64251.1665
513.113	64160.94672
513.294	64284.22822
513.476	64270.99999
513.657	64304.07943
513.838	64379.16995
514.019	64240.15246
514.2	64319.52666
514.381	64264.38765
514.561	64244.55768
514.742	64341.60541
514.923	64273.20437
515.104	64255.57303
515.285	64299.66712
515.466	64330.56437
515.647	64368.11753
515.828	64222.53675
516.009	64266.59164
516.189	64341.60541
516.37	64376.9592
516.551	64350.44064
516.732	64350.44064
516.913	64315.1125
517.093	64343.81402
517.274	64350.44064
517.455	64191.72915
517.636	64264.38765
517.816	64255.57303
517.997	64279.81828
518.178	64286.43338
518.358	64385.80302
518.539	64312.90562
518.72	64295.25535
518.9	64284.22822
519.081	64297.46117
519.261	64246.76049
519.442	64163.14464
519.622	64279.81828
519.803	64284.22822
519.984	64233.54559
520.164	64310.69887
520.345	64290.8441
520.525	64277.61351
520.705	64332.77231
520.886	64229.14167
521.066	64443.34069
521.247	64299.66712
521.427	64304.07943
521.608	64145.56488
521.788	64330.56437
521.968	64132.38539
522.149	64348.23163
522.329	64270.99999
522.509	64379.16995
522.69	64330.56437
522.87	64359.27801
523.05	64385.80302
523.231	64365.90745
523.411	64326.14889
523.591	64273.20437
523.771	64354.85906
523.951	64268.79575
524.132	64251.1665
524.312	64301.87321
524.492	64330.56437
524.672	64275.40888
524.852	64251.1665
525.032	64312.90562
525.213	64279.81828
525.393	64211.53113
525.573	64388.01431
525.753	64240.15246
525.933	64266.59164
526.113	64273.20437
526.293	64376.9592
526.473	64346.02276
526.653	64200.52875
526.833	64337.18859
527.013	64394.649
527.193	64310.69887
527.373	64326.14889
527.553	64299.66712
527.733	64268.79575
527.913	64357.06847
528.092	64496.53453
528.272	64282.02318
528.452	64339.39694
528.632	64418.98661
528.812	64323.94134
528.992	64273.20437
529.171	64306.28578
529.351	64401.2849
529.531	64394.649
529.711	64290.8441
529.89	64392.4373
530.07	64284.22822
530.25	64198.32866
530.43	64202.72897
530.609	64326.14889
530.789	64308.49226
530.969	64297.46117
531.148	64365.90745
531.328	64403.49714
531.507	64357.06847
531.687	64270.99999
531.867	64396.86083
532.046	64255.57303
532.226	64361.48769
532.405	64299.66712
532.585	64321.73393
532.764	64343.81402
532.944	64198.32866
533.123	64326.14889
533.303	64376.9592
533.482	64200.52875
533.662	64352.64978
533.841	64295.25535
534.021	64259.98008
534.2	64348.23163
534.379	64392.4373
534.559	64330.56437
534.738	64290.8441
534.917	64432.26861
535.097	64321.73393
535.276	64317.31951
535.455	64275.40888
535.635	64410.13467
535.814	64354.85906
535.993	64286.43338
536.172	64418.98661
536.352	64381.38084
536.531	64401.2849
536.71	64308.49226
536.889	64328.35656
537.068	64368.11753
537.248	64388.01431
537.427	64251.1665
537.606	64321.73393
537.785	64326.14889
537.964	64341.60541
538.143	64405.70951
538.322	64357.06847
538.501	64323.94134
538.68	64379.16995
538.859	64275.40888
539.038	64414.56037
539.217	64414.56037
539.396	64483.22862
539.575	64339.39694
539.754	64321.73393
539.933	64286.43338
540.112	64507.62661
540.291	64346.02276
540.47	64348.23163
540.649	64350.44064
540.828	64507.62661
541.007	64317.31951
541.186	64425.627
541.364	64326.14889
541.543	64407.92202
541.722	64363.6975
541.901	64401.2849
542.08	64251.1665
542.258	64288.63867
542.437	64432.26861
542.616	64297.46117
542.795	64452.20083
542.973	64407.92202
543.152	64416.77342
543.331	64394.649
543.509	64441.126
543.688	64321.73393
543.867	64418.98661
544.045	64432.26861
544.224	64282.02318
544.402	64022.73181
544.581	64385.80302
544.76	64483.22862
544.938	64376.9592
545.117	64346.02276
545.295	64394.649
545.474	64392.4373
545.652	64467.71135
545.831	64418.98661
546.009	64288.63867
546.188	64392.4373
546.366	64405.70951
546.544	64383.59186
546.723	64379.16995
546.901	64372.5381
547.08	64315.1125
547.258	64425.627
547.436	64423.4134
547.615	64472.14416
547.793	64399.0728
547.971	64381.38084
548.15	64396.86083
548.328	64343.81402
548.506	64282.02318
548.684	64255.57303
548.863	64416.77342
549.041	64447.77049
549.219	64505.40792
549.397	64368.11753
549.576	64418.98661
549.754	64376.9592
549.932	64403.49714
550.11	64445.55552
550.288	64481.01145
550.466	64567.58421
550.644	64343.81402
550.822	64441.126
551.001	64481.01145
551.179	64534.26181
551.357	64469.92769
551.535	64412.34745
551.713	64472.14416
551.891	64476.57753
552.069	64520.9417
552.247	64481.01145
552.425	64516.50278
552.603	64516.50278
552.781	64494.31653
552.958	64525.38118
553.136	64503.18936
553.314	64618.74042
553.492	64574.2525
553.67	64600.93842
553.848	64614.28906
554.026	64712.35226
554.204	64694.50168
554.381	64634.32469
554.559	64696.73249
554.737	64770.43167
554.915	64703.4258
555.092	64661.05699
555.27	64734.67869
555.448	64696.73249
555.626	64748.08162
555.803	64835.33127
555.981	64663.28562
556.159	64792.79661
556.336	64801.74676
556.514	64864.46535
556.692	64819.65428
556.869	64792.79661
557.047	64788.32243
557.224	64819.65428
557.402	64835.33127
557.58	64759.25479
557.757	64873.43485
557.935	64972.26182
558.112	64877.92052
558.29	64866.7075
558.467	64972.26182
558.645	64974.51138
558.822	64988.01203
559	64961.01637
559.177	64936.29008
559.354	64911.58256
559.532	64918.31912
559.709	64949.77481
559.887	64911.58256
560.064	65012.77793
560.241	64889.13737
560.419	64909.33735
560.596	64889.13737
560.773	64882.4068
560.951	64864.46535
561.128	64748.08162
561.305	64976.7611
561.482	64918.31912
561.66	64866.7075
561.837	64862.22336
562.014	64911.58256
562.191	64985.76153
562.368	64931.79641
562.546	64864.46535
562.723	64965.51408
562.9	64934.04317
563.077	64859.98151
563.254	64956.51928
563.431	64925.05707
563.608	64837.57144
563.785	64954.27097
563.962	64893.62518
564.139	64983.51119
564.317	64866.7075
564.494	64999.2669
564.671	64801.74676
564.848	64898.1136
565.025	64949.77481
565.201	64976.7611
565.378	64907.09229
565.555	64904.84739
565.732	64940.78437
565.909	64949.77481
566.086	64931.79641
566.263	64981.261
566.44	64936.29008
566.617	64976.7611
566.794	64898.1136
566.97	64961.01637
567.147	65030.8015
567.324	64934.04317
567.501	64994.76448
567.678	64931.79641
567.854	64954.27097
568.031	65064.62311
568.208	64934.04317
568.384	64999.2669
568.561	64974.51138
568.738	64999.2669
568.915	64976.7611
569.091	65051.09016
569.268	65010.5257
569.444	65060.11149
569.621	65030.8015
569.798	65057.85592
569.974	65001.51834
570.151	64997.01561
570.327	65012.77793
570.504	64985.76153
570.681	65080.41884
570.857	65048.83523
571.034	65057.85592
571.21	65008.27362
571.387	65154.99104
571.563	65127.85342
571.739	64965.51408
571.916	65177.62373
572.092	65102.99784
572.269	65051.09016
572.445	65064.62311
572.622	65112.03397
572.798	65051.09016
572.974	65105.25663
573.151	65161.77912
573.327	65102.99784
573.503	65001.51834
573.68	65164.04214
573.856	65157.25357
574.032	65161.77912
574.208	65042.07139
574.385	65066.87917
574.561	65179.8879
574.737	65152.72867
574.913	65048.83523
575.089	65152.72867
575.266	65157.25357
575.442	65168.56868
575.618	65008.27362
575.794	65130.11399
575.97	65139.1579
576.146	65069.13538
576.322	65134.63562
576.499	65026.29466
576.675	65044.32584
576.851	65046.58046
577.027	64970.01242
577.203	65102.99784
577.379	65143.68084
577.555	65098.48075
577.731	65053.34525
577.907	64727.97922
578.083	65008.27362
578.259	65080.41884
578.435	65055.60051
578.611	64936.29008
578.786	64952.02281
578.962	65003.76994
579.138	65116.553
579.314	65008.27362
579.49	65080.41884
579.666	64983.51119
579.842	65060.11149
580.017	65060.11149
580.193	65046.58046
580.369	64994.76448
580.545	65019.53558
580.72	64925.05707
580.896	65055.60051
581.072	64945.27928
581.248	64992.51351
581.423	64920.56495
581.599	65024.04147
581.775	64983.51119
581.95	64985.76153
582.126	65012.77793
582.302	64916.07345
582.477	64979.01097
582.653	65039.81709
582.829	65024.04147
583.004	65114.2934
583.18	65010.5257
583.355	65048.83523
583.531	64979.01097
583.706	64956.51928
583.882	65048.83523
584.057	65132.37472
584.233	64994.76448
584.408	64895.86931
584.584	65015.03032
584.759	65078.16183
584.935	65078.16183
585.11	65064.62311
585.285	65098.48075
585.461	65170.83219
585.636	65071.39175
585.812	65089.44851
585.987	65157.25357
586.162	65143.68084
586.338	65084.93336
586.513	65179.8879
586.688	65241.08314
586.863	65118.81276
587.039	65175.35972
587.214	65150.46647
587.389	65145.94255
587.564	65186.68141
587.74	65143.68084
587.915	65311.49482
588.09	65256.9684
588.265	65193.4764
588.44	65270.59089
588.615	65254.69858
588.791	65243.35196
588.966	65297.85407
589.141	65316.04309
589.316	65236.546
589.491	65250.15943
589.666	65220.67127
589.841	65184.41674
590.016	65295.58121
590.191	65211.60366
590.366	65343.34707
590.541	65361.56343
590.716	65311.49482
590.891	65288.76364
591.066	65384.3494
591.241	65359.28579
591.416	65377.51179
591.591	65366.11924
591.766	65366.11924
591.941	65480.24074
592.116	65493.96487
592.29	65375.23294
592.465	65423.12534
592.64	65537.46697
592.815	65471.09487
592.99	65521.43237
593.165	65480.24074
593.339	65503.11785
593.514	65473.38107
593.689	65395.74887
593.864	65477.95401
594.038	65505.40654
594.213	65398.02928
594.388	65480.24074
594.562	65457.38137
594.737	65395.74887
594.912	65475.66745
595.086	65532.88476
595.261	65484.81474
595.436	65413.99706
595.61	65434.53963
595.785	65427.69053
595.959	65423.12534
596.134	65464.23732
596.309	65461.95183
596.483	65468.80885
596.658	65457.38137
596.832	65484.81474
597.007	65359.28579
597.181	65516.85266
597.356	65432.25642
597.53	65521.43237
597.704	65493.96487
597.879	65452.81161
598.053	65457.38137
598.228	65370.67575
598.402	65368.39741
598.576	65468.80885
598.751	65384.3494
598.925	65443.67422
599.1	65443.67422
599.274	65489.38945
599.448	65455.0964
599.622	65361.56343
599.797	65439.10657
599.971	65439.10657
600.145	65316.04309
600.32	65411.71543
600.494	65436.82301
600.668	65388.90867
600.842	65377.51179
601.016	65487.10201
601.191	65388.90867
601.365	65179.8879
601.539	65409.43397
601.713	65443.67422
601.887	65352.45388
602.061	65468.80885
602.235	65391.18856
602.409	65461.95183
602.583	65400.30987
602.758	65523.72249
602.932	65461.95183
603.106	65526.01279
603.28	65475.66745
603.454	65429.97339
603.628	65384.3494
603.802	65480.24074
603.976	65464.23732
604.149	65445.9583
604.323	65400.30987
604.497	65477.95401
604.671	65395.74887
604.845	65429.97339
605.019	65468.80885
605.193	65480.24074
605.367	65393.46863
605.541	65425.40785
605.714	65370.67575
605.888	65379.79082
606.062	65450.527
606.236	65553.51039
606.41	65336.51877
606.583	65461.95183
606.757	65484.81474
606.931	65429.97339
607.105	65464.23732
607.278	65468.80885
607.452	65514.56308
607.626	65379.79082
607.799	65464.23732
607.973	65482.52765
608.147	65423.12534
608.32	65480.24074
608.494	65434.53963
608.668	65461.95183
608.841	65361.56343
609.015	65372.95426
609.188	65425.40785
609.362	65535.17578
609.535	65448.24256
609.709	65473.38107
609.882	65436.82301
610.056	65409.43397
610.229	65439.10657
610.403	65441.39031
610.576	65336.51877
610.75	65409.43397
610.923	65439.10657
611.097	65496.25285
611.27	65363.84125
611.443	65429.97339
611.617	65530.59392
611.79	65535.17578
611.963	65427.69053
612.137	65439.10657
612.31	65434.53963
612.483	65461.95183
612.657	65445.9583
612.83	65503.11785
613.003	65500.82934
613.177	65461.95183
613.35	65480.24074
613.523	65439.10657
613.696	65416.27887
613.869	65553.51039
614.043	65391.18856
614.216	65439.10657
614.389	65477.95401
614.562	65400.30987
614.735	65455.0964
614.908	65464.23732
615.082	65398.02928
615.255	65443.67422
615.428	65407.15268
615.601	65484.81474
615.774	65457.38137
615.947	65411.71543
616.12	65316.04309
616.293	65352.45388
616.466	65366.11924
616.639	65384.3494
616.812	65416.27887
616.985	65334.24301
617.158	65413.99706
617.331	65432.25642
617.504	65411.71543
617.677	65489.38945
617.85	65443.67422
618.022	65457.38137
618.195	65439.10657
618.368	65375.23294
618.541	65361.56343
618.714	65441.39031
618.887	65429.97339
619.059	65395.74887
619.232	65439.10657
619.405	65281.94759
619.578	65311.49482
619.751	65420.84301
619.923	65398.02928
620.096	65329.692
620.269	65350.17692
620.441	65400.30987
620.614	65441.39031
620.787	65368.39741
620.96	65382.07002
621.132	65286.49146
621.305	65259.2384
621.477	65316.04309
621.65	65402.59064
621.823	65416.27887
621.995	65311.49482
622.168	65320.59204
622.34	65322.86678
622.513	65334.24301
622.685	65329.692
622.858	65311.49482
623.03	65370.67575
623.203	65398.02928
623.375	65350.17692
623.548	65391.18856
623.72	65322.86678
623.893	65325.14168
624.065	65347.90013
624.238	65341.0708
624.41	65441.39031
624.582	65279.67591
624.755	65357.00831
624.927	65334.24301
625.1	65327.41676
625.272	65400.30987
625.444	65293.30852
625.617	65207.07085
625.789	65284.21944
625.961	65345.62351
626.133	65281.94759
626.306	65268.32005
626.478	65268.32005
626.65	65252.42892
626.822	65334.24301
626.995	65232.00953
627.167	65243.35196
627.339	65313.76887
627.511	65204.80469
627.683	65243.35196
627.855	65213.87031
628.027	65293.30852
628.2	65227.47373
628.372	65252.42892
628.544	65254.69858
628.716	65252.42892
628.888	65229.74154
629.06	65166.30533
629.232	65329.692
629.404	65254.69858
629.576	65170.83219
629.748	65270.59089
629.92	65132.37472
630.092	65121.07268
630.264	65218.40412
630.436	65295.58121
630.608	65227.47373
630.78	65222.93859
630.952	65266.04939
631.124	65188.94624
631.295	65211.60366
631.467	65263.77889
631.639	65179.8879
631.811	65259.2384
631.983	65238.81449
632.155	65238.81449
632.326	65234.27768
632.498	65229.74154
632.67	65238.81449
632.842	65272.86189
633.014	65218.40412
633.185	65161.77912
633.357	65250.15943
633.529	65123.33276
633.7	65157.25357
633.872	65272.86189
634.044	65275.13306
634.215	65164.04214
634.387	65238.81449
634.559	65316.04309
634.73	65259.2384
634.902	65306.94722
635.074	65243.35196
635.245	65234.27768
635.417	65256.9684
635.588	65170.83219
635.76	65316.04309
635.931	65302.40031
636.103	65316.04309
636.274	65211.60366
636.446	65263.77889
636.617	65198.00722
636.789	65291.03599
636.96	65284.21944
637.132	65304.67368
637.303	65293.30852
637.474	65325.14168
637.646	65243.35196
637.817	65318.31748
637.989	65270.59089
638.16	65329.692
638.331	65352.45388
638.503	65216.13713
638.674	65247.8901
638.845	65352.45388
639.017	65263.77889
639.188	65266.04939
639.359	65354.73101
639.53	65341.0708
639.702	65270.59089
639.873	65350.17692
640.044	65313.76887
640.215	65325.14168
640.387	65225.20607
640.558	65207.07085
640.729	65179.8879
640.9	65209.33717
641.071	65220.67127
641.242	65225.20607
641.413	65236.546
641.585	65281.94759
641.756	65209.33717
641.927	65336.51877
642.098	65261.50856
642.269	65259.2384
642.44	65325.14168
642.611	65252.42892
642.782	65259.2384
642.953	65168.56868
643.124	65211.60366
643.295	65334.24301
643.466	65200.27288
643.637	65263.77889
643.808	65245.62095
643.979	65177.62373
644.15	65150.46647
644.32	65204.80469
644.491	65222.93859
644.662	65370.67575
644.833	65247.8901
645.004	65213.87031
645.175	65256.9684
645.346	65193.4764
645.516	65286.49146
645.687	65238.81449
645.858	65241.08314
646.029	65191.21124
646.199	65272.86189
646.37	65234.27768
646.541	65297.85407
646.712	65170.83219
646.882	65218.40412
647.053	65250.15943
647.224	65245.62095
647.394	65232.00953
647.565	65236.546
647.736	65275.13306
647.906	65309.22093
648.077	65236.546
648.248	65306.94722
648.418	65279.67591
648.589	65322.86678
648.759	65263.77889
648.93	65266.04939
649.1	65325.14168
649.271	65193.4764
649.441	65202.5387
649.612	65275.13306
649.782	65200.27288
649.953	65182.15224
650.123	65234.27768
650.294	65175.35972
650.464	65216.13713
650.635	64922.81093
650.805	65238.81449
650.975	65112.03397
651.146	65275.13306
651.316	65229.74154
651.487	65259.2384
651.657	65261.50856
651.827	65193.4764
651.998	65316.04309
652.168	65202.5387
652.338	65266.04939
652.508	65331.96742
652.679	65254.69858
652.849	65175.35972
653.019	65211.60366
653.189	65207.07085
653.36	65220.67127
653.53	65316.04309
653.7	65222.93859
653.87	65336.51877
654.04	65270.59089
654.211	65288.76364
654.381	65193.4764
654.551	65306.94722
654.721	65216.13713
654.891	65291.03599
655.061	65213.87031
655.231	65325.14168
655.401	65338.7947
655.571	65304.67368
655.741	65222.93859
655.911	65270.59089
656.081	65209.33717
656.251	65341.0708
656.421	65236.546
656.591	65331.96742
656.761	65247.8901
656.931	65372.95426
657.101	65338.7947
657.271	65284.21944
657.441	65261.50856
657.611	65375.23294
657.781	65266.04939
657.951	65309.22093
658.121	65247.8901
658.291	65243.35196
658.46	65350.17692
658.63	65277.4044
658.8	65304.67368
658.97	65272.86189
659.14	65220.67127
659.309	65300.12711
659.479	65254.69858
659.649	65329.692
659.819	65245.62095
659.988	65366.11924
660.158	65398.02928
660.328	65277.4044
660.497	65341.0708
660.667	65327.41676
660.837	65277.4044
661.006	65256.9684
661.176	65416.27887
661.346	65306.94722
661.515	65347.90013
661.685	65352.45388
661.854	65309.22093
662.024	65336.51877
662.194	65297.85407
662.363	65286.49146
662.533	65338.7947
662.702	65434.53963
662.872	65384.3494
663.041	65275.13306
663.211	65420.84301
663.38	65477.95401
663.55	65341.0708
663.719	65336.51877
663.889	65459.66651
664.058	65416.27887
664.227	65361.56343
664.397	65347.90013
664.566	65345.62351
664.735	65434.53963
664.905	65395.74887
665.074	65395.74887
665.244	65379.79082
665.413	65443.67422
665.582	65357.00831
665.751	65391.18856
665.921	65393.46863
666.09	65402.59064
666.259	65354.73101
666.428	65398.02928
666.598	65402.59064
666.767	65345.62351
666.936	65354.73101
667.105	65334.24301
667.275	65386.62894
667.444	65384.3494
667.613	65291.03599
667.782	65443.67422
667.951	65347.90013
668.12	65375.23294
668.289	65386.62894
668.458	65338.7947
668.628	65441.39031
668.797	65409.43397
668.966	65425.40785
669.135	65306.94722
669.304	65377.51179
669.473	65377.51179
669.642	65404.87157
669.811	65407.15268
669.98	65359.28579
670.149	65336.51877
670.318	65452.81161
670.487	65420.84301
670.656	65366.11924
670.824	65411.71543
670.993	65461.95183
671.162	65363.84125
671.331	65350.17692
671.5	65413.99706
671.669	65434.53963
671.838	65450.527
672.007	65384.3494
672.175	65400.30987
672.344	65411.71543
672.513	65270.59089
672.682	65445.9583
672.85	65361.56343
673.019	65329.692
673.188	65304.67368
673.357	65359.28579
673.525	65450.527
673.694	65450.527
673.863	65400.30987
674.032	65361.56343
674.2	65427.69053
674.369	65427.69053
674.537	65370.67575
674.706	65466.523
674.875	65418.56085
675.043	65398.02928
675.212	65384.3494
675.381	65384.3494
675.549	65439.10657
675.718	65457.38137
675.886	65409.43397
676.055	65480.24074
676.223	65452.81161
676.392	65388.90867
676.56	65402.59064
676.729	65413.99706
676.897	65475.66745
677.066	65439.10657
677.234	65436.82301
677.403	65539.75835
677.571	65443.67422
677.739	65434.53963
677.908	65457.38137
678.076	65409.43397
678.244	65423.12534
678.413	65473.38107
678.581	65404.87157
678.75	65459.66651
678.918	65464.23732
679.086	65448.24256
679.254	65542.04991
679.423	65352.45388
679.591	65448.24256
679.759	65443.67422
679.928	65471.09487
680.096	65423.12534
680.264	65457.38137
680.432	65418.56085
680.6	65445.9583
680.769	65398.02928
680.937	65498.541
681.105	65398.02928
681.273	65395.74887
681.441	65450.527
681.609	65343.34707
681.777	65450.527
681.945	65416.27887
682.114	65473.38107
682.282	65425.40785
682.45	65457.38137
682.618	65484.81474
682.786	65542.04991
682.954	65436.82301
683.122	65266.04939
683.29	65363.84125
683.458	65471.09487
683.626	65466.523
683.794	65436.82301
683.962	65555.80303
684.13	65382.07002
684.298	65496.25285
684.465	65429.97339
684.633	65484.81474
684.801	65498.541
684.969	65473.38107
685.137	65393.46863
685.305	65493.96487
685.473	65434.53963
685.64	65493.96487
685.808	65571.85656
685.976	65366.11924
686.144	65521.43237
686.312	65352.45388
686.479	65514.56308
686.647	65505.40654
686.815	65464.23732
686.983	65482.52765
687.15	65445.9583
687.318	65480.24074
687.486	65448.24256
687.653	65434.53963
687.821	65487.10201
687.989	65436.82301
688.156	65528.30326
688.324	65503.11785
688.492	65445.9583
688.659	65590.21433
688.827	65418.56085
688.994	65512.27368
689.162	65493.96487
689.329	65386.62894
689.497	65514.56308
689.665	65555.80303
689.832	65443.67422
690	65425.40785
690.167	65523.72249
690.335	65484.81474
690.502	65507.69541
690.669	65443.67422
690.837	65487.10201
691.004	65395.74887
691.172	65393.46863
691.339	65377.51179
691.507	65546.63356
691.674	65512.27368
691.841	65521.43237
692.009	65560.38885
692.176	65475.66745
692.343	65521.43237
692.511	65482.52765
692.678	65489.38945
692.845	65475.66745
693.013	65530.59392
693.18	65441.39031
693.347	65461.95183
693.514	65564.97539
693.682	65464.23732
693.849	65509.98445
694.016	65489.38945
694.183	65420.84301
694.35	65603.9903
694.518	65516.85266
694.685	65519.14243
694.852	65514.56308
695.019	65608.58375
695.186	65477.95401
695.353	65400.30987
695.52	65455.0964
695.687	65450.527
695.855	65468.80885
696.022	65466.523
696.189	65512.27368
696.356	65530.59392
696.523	65581.03399
696.69	65398.02928
696.857	65608.58375
697.024	65436.82301
697.191	65528.30326
697.358	65439.10657
697.525	65420.84301
697.692	65471.09487
697.858	65546.63356
698.025	65455.0964
698.192	65459.66651
698.359	65560.38885
698.526	65471.09487
698.693	65477.95401
698.86	65521.43237
699.027	65500.82934
699.193	65567.26893
699.36	65521.43237
699.527	65532.88476
699.694	65555.80303
699.861	65555.80303
700.027	65398.02928
700.194	65443.67422
700.361	65459.66651
700.528	65450.527
700.694	65505.40654
700.861	65542.04991
701.028	65473.38107
701.195	65473.38107
701.361	65464.23732
701.528	65512.27368
701.694	65455.0964
701.861	65581.03399
702.028	65382.07002
702.194	65441.39031
702.361	65512.27368
702.528	65509.98445
702.694	65503.11785
702.861	65357.00831
703.027	65471.09487
703.194	65528.30326
703.36	65473.38107
703.527	65571.85656
703.693	65418.56085
703.86	65407.15268
704.026	65496.25285
704.193	65647.65773
704.359	65493.96487
704.526	65544.34164
