Data from Sun blanked_Subt2__0__09-54-16-966.txt Node

Date: Tue Sep 23 09:54:16 EDT 2025
User: brett
Spectrometer: USB4F03499
Trigger mode: 4
Integration Time (sec): 1.000000E-1
Scans to average: 1
Electric dark correction enabled: true
Nonlinearity correction enabled: true
Boxcar width: 0
XAxis mode: Wavelengths
Number of Pixels in Spectrum: 3648
>>>>>Begin Spectral Data<<<<<
0	-196.45991
0.225	-196.45991
0.449	-196.45991
0.674	-126.56425
0.898	-193.78138
1.123	-199.4259
1.347	-208.77929
1.572	-128.3464
1.796	11.8706
2.021	-43.22555
2.245	-82.05266
2.469	-96.08704
2.694	-109.61682
2.918	27.89029
3.143	18.73417
3.367	208.13821
3.591	593.30876
3.815	2294.74212
4.04	65570.53721
4.264	65643.93358
4.488	65565.95607
4.712	65513.32436
4.936	65549.92774
5.161	65680.70174
5.385	65639.34086
5.609	65584.28493
5.833	65522.47094
6.057	65554.50637
6.281	65586.57684
6.505	65620.97727
6.729	65517.89729
6.953	65673.80413
7.177	65563.66577
7.401	65581.99319
7.625	65561.37565
7.849	65604.91867
8.073	65625.56708
8.297	65577.41026
8.521	65620.97727
8.744	65630.15761
8.968	65655.41859
9.192	65653.12122
9.416	65676.10315
9.64	65630.15761
9.863	65627.86225
10.087	65620.97727
10.311	65616.38819
10.535	65538.48429
10.758	65501.89511
10.982	65591.16122
11.205	65529.33273
11.429	65586.57684
11.653	65575.11906
11.876	65527.04529
12.1	65616.38819
12.323	65653.12122
12.547	65604.91867
12.77	65627.86225
12.994	65549.92774
13.217	65609.50593
13.441	65611.79984
13.664	65627.86225
13.887	65616.38819
14.111	65584.28493
14.334	65479.04986
14.557	65575.11906
14.781	65556.79595
15.004	65531.62036
15.227	65552.21696
15.451	65632.45315
15.674	65529.33273
15.897	65481.33359
16.12	65581.99319
16.343	65588.86894
16.567	65689.90114
16.79	65607.21221
17.013	65488.18585
17.236	65595.74631
17.459	65575.11906
17.682	65586.57684
17.905	65575.11906
18.128	65632.45315
18.351	65581.99319
18.574	65543.06113
18.797	65609.50593
19.02	65575.11906
19.243	65639.34086
19.466	65545.34982
19.689	65616.38819
19.911	65634.74887
20.134	65643.93358
20.357	65565.95607
20.58	65579.70163
20.803	65673.80413
21.025	65572.82804
21.248	65595.74631
21.471	65533.90815
21.694	65565.95607
21.916	65595.74631
22.139	65676.10315
22.362	65600.33213
22.584	65607.21221
22.807	65565.95607
23.029	65570.53721
23.252	65559.08571
23.475	65520.18403
23.697	65664.60989
23.92	65611.79984
24.142	65565.95607
24.365	65552.21696
24.587	65575.11906
24.809	65570.53721
25.032	65513.32436
25.254	65529.33273
25.477	65611.79984
25.699	65584.28493
25.921	65575.11906
26.144	65531.62036
26.366	65648.52704
26.588	65552.21696
26.81	65630.15761
27.033	65595.74631
27.255	65501.89511
27.477	65579.70163
27.699	65588.86894
27.921	65602.62531
28.144	65570.53721
28.366	65552.21696
28.588	65685.30107
28.81	65664.60989
29.032	65568.24655
29.254	65588.86894
29.476	65559.08571
29.698	65588.86894
29.92	65584.28493
30.142	65614.09392
30.364	65598.03913
30.586	65630.15761
30.808	65671.50529
31.029	65637.04478
31.251	65618.68264
31.473	65563.66577
31.695	65591.16122
31.917	65581.99319
32.139	65561.37565
32.36	65522.47094
32.582	65653.12122
32.804	65643.93358
33.026	65497.32465
33.247	65559.08571
33.469	65616.38819
33.691	65561.37565
33.912	65653.12122
34.134	65460.78629
34.355	65637.04478
34.577	65614.09392
34.798	65536.19613
35.02	65568.24655
35.242	65588.86894
35.463	65662.31179
35.684	65577.41026
35.906	65701.40454
36.127	65602.62531
36.349	65511.03815
36.57	65598.03913
36.792	65609.50593
37.013	65609.50593
37.234	65572.82804
37.456	65545.34982
37.677	65646.23022
37.898	65586.57684
38.119	65660.01387
38.341	65556.79595
38.562	65609.50593
38.783	65561.37565
39.004	65579.70163
39.225	65632.45315
39.447	65561.37565
39.668	65598.03913
39.889	65660.01387
40.11	65586.57684
40.331	65506.46628
40.552	65666.90817
40.773	65570.53721
40.994	65607.21221
41.215	65579.70163
41.436	65630.15761
41.657	65570.53721
41.878	65563.66577
42.099	65641.63713
42.32	65586.57684
42.54	65529.33273
42.761	65593.45367
42.982	65627.86225
43.203	65643.93358
43.424	65650.82404
43.645	65561.37565
43.865	65598.03913
44.086	65561.37565
44.307	65609.50593
44.527	65662.31179
44.748	65570.53721
44.969	65598.03913
45.189	65627.86225
45.41	65586.57684
45.631	65474.48291
45.851	65556.79595
46.072	65598.03913
46.292	65511.03815
46.513	65632.45315
46.733	65485.90159
46.954	65611.79984
47.174	65673.80413
47.395	65692.20145
47.615	65543.06113
47.836	65536.19613
48.056	65643.93358
48.276	65600.33213
48.497	65533.90815
48.717	65538.48429
48.937	65497.32465
49.158	65618.68264
49.378	65616.38819
49.598	65591.16122
49.818	65520.18403
50.038	65524.75802
50.259	65632.45315
50.479	65669.20664
50.699	65598.03913
50.919	65593.45367
51.139	65575.11906
51.359	65602.62531
51.579	65620.97727
51.799	65618.68264
52.02	65604.91867
52.24	65568.24655
52.46	65609.50593
52.68	65625.56708
52.899	65570.53721
53.119	65595.74631
53.339	65637.04478
53.559	65586.57684
53.779	65506.46628
53.999	65527.04529
54.219	65463.06863
54.439	65648.52704
54.658	65683.00131
54.878	65584.28493
55.098	65623.27208
55.318	65561.37565
55.538	65533.90815
55.757	65584.28493
55.977	65595.74631
56.197	65524.75802
56.416	65598.03913
56.636	65595.74631
56.855	65618.68264
57.075	65533.90815
57.295	65630.15761
57.514	65671.50529
57.734	65568.24655
57.953	65584.28493
58.173	65575.11906
58.392	65611.79984
58.612	65620.97727
58.831	65625.56708
59.051	65563.66577
59.27	65497.32465
59.489	65579.70163
59.709	65593.45367
59.928	65614.09392
60.147	65598.03913
60.367	65623.27208
60.586	65545.34982
60.805	65604.91867
61.024	65586.57684
61.244	65666.90817
61.463	65600.33213
61.682	65577.41026
61.901	65565.95607
62.12	65623.27208
62.34	65586.57684
62.559	65591.16122
62.778	65467.63382
62.997	65611.79984
63.216	65655.41859
63.435	65648.52704
63.654	65497.32465
63.873	65609.50593
64.092	65595.74631
64.311	65536.19613
64.53	65575.11906
64.749	65593.45367
64.968	65581.99319
65.187	65678.40235
65.405	65595.74631
65.624	65591.16122
65.843	65570.53721
66.062	65579.70163
66.281	65543.06113
66.499	65666.90817
66.718	65648.52704
66.937	65565.95607
67.156	65581.99319
67.374	65620.97727
67.593	65483.6175
67.812	65591.16122
68.03	65602.62531
68.249	65650.82404
68.467	65620.97727
68.686	65554.50637
68.905	65543.06113
69.123	65712.91258
69.342	65586.57684
69.56	65616.38819
69.779	65689.90114
69.997	65563.66577
70.216	65604.91867
70.434	65579.70163
70.652	65549.92774
70.871	65595.74631
71.089	65623.27208
71.307	65664.60989
71.526	65572.82804
71.744	65630.15761
71.962	65623.27208
72.181	65627.86225
72.399	65620.97727
72.617	65577.41026
72.835	65561.37565
73.054	65630.15761
73.272	65607.21221
73.49	65618.68264
73.708	65671.50529
73.926	65662.31179
74.144	65657.71614
74.362	65572.82804
74.58	65607.21221
74.798	65604.91867
75.016	65588.86894
75.234	65620.97727
75.452	65595.74631
75.67	65559.08571
75.888	65632.45315
76.106	65533.90815
76.324	65666.90817
76.542	65671.50529
76.76	65591.16122
76.978	65602.62531
77.196	65634.74887
77.413	65561.37565
77.631	65538.48429
77.849	65646.23022
78.067	65556.79595
78.284	65554.50637
78.502	65611.79984
78.72	65611.79984
78.938	65666.90817
79.155	65648.52704
79.373	65602.62531
79.59	65648.52704
79.808	65611.79984
80.026	65637.04478
80.243	65620.97727
80.461	65511.03815
80.678	65495.03969
80.896	65554.50637
81.113	65584.28493
81.331	65616.38819
81.548	65410.61903
81.766	65549.92774
81.983	65572.82804
82.2	65623.27208
82.418	65678.40235
82.635	65543.06113
82.852	65447.09597
83.07	65593.45367
83.287	65604.91867
83.504	65570.53721
83.722	65497.32465
83.939	65586.57684
84.156	65490.47028
84.373	65643.93358
84.591	65602.62531
84.808	65588.86894
85.025	65549.92774
85.242	65623.27208
85.459	65581.99319
85.676	65593.45367
85.893	65660.01387
86.11	65575.11906
86.327	65577.41026
86.544	65588.86894
86.761	65618.68264
86.978	65549.92774
87.195	65584.28493
87.412	65694.50194
87.629	65639.34086
87.846	65600.33213
88.063	65515.61074
88.28	65593.45367
88.497	65602.62531
88.713	65632.45315
88.93	65657.71614
89.147	65618.68264
89.364	65559.08571
89.58	65586.57684
89.797	65559.08571
90.014	65588.86894
90.231	65536.19613
90.447	65614.09392
90.664	65559.08571
90.881	65568.24655
91.097	65522.47094
91.314	65529.33273
91.53	65607.21221
91.747	65577.41026
91.963	65641.63713
92.18	65593.45367
92.396	65593.45367
92.613	65579.70163
92.829	65678.40235
93.046	65662.31179
93.262	65653.12122
93.479	65561.37565
93.695	65568.24655
93.911	65602.62531
94.128	65653.12122
94.344	65515.61074
94.56	65554.50637
94.777	65701.40454
94.993	65632.45315
95.209	65527.04529
95.426	65374.18629
95.642	65655.41859
95.858	65616.38819
96.074	65600.33213
96.29	65666.90817
96.506	65595.74631
96.723	65577.41026
96.939	65648.52704
97.155	65637.04478
97.371	65586.57684
97.587	65618.68264
97.803	65620.97727
98.019	65611.79984
98.235	65554.50637
98.451	65643.93358
98.667	65497.32465
98.883	65634.74887
99.099	65666.90817
99.315	65639.34086
99.53	65579.70163
99.746	65611.79984
99.962	65646.23022
100.178	65602.62531
100.394	65604.91867
100.61	65671.50529
100.825	65556.79595
101.041	65634.74887
101.257	65581.99319
101.473	65586.57684
101.688	65568.24655
101.904	65625.56708
102.12	65593.45367
102.335	65579.70163
102.551	65625.56708
102.766	65533.90815
102.982	65611.79984
103.198	65632.45315
103.413	65591.16122
103.629	65623.27208
103.844	65616.38819
104.06	65604.91867
104.275	65552.21696
104.49	65570.53721
104.706	65643.93358
104.921	65007.70645
105.137	65591.16122
105.352	65524.75802
105.567	65604.91867
105.783	65581.99319
105.998	65575.11906
106.213	65556.79595
106.429	65641.63713
106.644	65625.56708
106.859	65584.28493
107.074	65458.50414
107.29	65643.93358
107.505	65609.50593
107.72	65538.48429
107.935	65543.06113
108.15	65575.11906
108.365	65655.41859
108.58	65552.21696
108.795	65545.34982
109.01	65552.21696
109.226	65676.10315
109.441	65437.97257
109.656	65655.41859
109.871	65488.18585
110.085	65556.79595
110.3	65586.57684
110.515	65664.60989
110.73	65501.89511
110.945	65614.09392
111.16	65556.79595
111.375	65561.37565
111.59	65609.50593
111.804	65579.70163
112.019	65581.99319
112.234	65618.68264
112.449	65556.79595
112.663	65595.74631
112.878	65618.68264
113.093	65598.03913
113.308	65511.03815
113.522	65595.74631
113.737	65717.51709
113.951	65565.95607
114.166	65598.03913
114.381	65586.57684
114.595	65609.50593
114.81	65579.70163
115.024	65593.45367
115.239	65565.95607
115.453	65627.86225
115.668	65611.79984
115.882	65559.08571
116.097	65611.79984
116.311	65694.50194
116.525	65586.57684
116.74	65701.40454
116.954	65549.92774
117.169	65598.03913
117.383	65579.70163
117.597	65536.19613
117.811	65595.74631
118.026	65511.03815
118.24	65547.63869
118.454	65600.33213
118.668	65602.62531
118.883	65602.62531
119.097	65584.28493
119.311	65584.28493
119.525	65586.57684
119.739	65591.16122
119.953	65611.79984
120.167	65469.91667
120.381	65620.97727
120.595	65586.57684
120.809	65627.86225
121.023	65572.82804
121.237	65611.79984
121.451	65620.97727
121.665	65616.38819
121.879	65584.28493
122.093	65520.18403
122.307	65692.20145
122.521	65632.45315
122.735	65520.18403
122.949	65616.38819
123.163	65671.50529
123.376	65554.50637
123.59	65533.90815
123.804	65591.16122
124.018	65627.86225
124.231	65639.34086
124.445	65662.31179
124.659	65517.89729
124.872	65499.60979
125.086	65595.74631
125.3	65591.16122
125.513	65572.82804
125.727	65627.86225
125.94	65575.11906
126.154	65595.74631
126.368	65643.93358
126.581	65618.68264
126.795	65627.86225
127.008	65623.27208
127.222	65655.41859
127.435	65643.93358
127.648	65641.63713
127.862	65570.53721
128.075	65634.74887
128.289	65552.21696
128.502	65646.23022
128.715	65581.99319
128.929	65696.80262
129.142	65623.27208
129.355	65593.45367
129.568	65531.62036
129.782	65570.53721
129.995	65515.61074
130.208	65616.38819
130.421	65637.04478
130.634	65630.15761
130.848	65552.21696
131.061	65515.61074
131.274	65556.79595
131.487	65655.41859
131.7	65627.86225
131.913	65554.50637
132.126	65600.33213
132.339	65504.18061
132.552	65415.17622
132.765	65522.47094
132.978	65600.33213
133.191	65623.27208
133.404	65559.08571
133.617	65618.68264
133.83	65570.53721
134.043	65648.52704
134.255	65673.80413
134.468	65572.82804
134.681	65669.20664
134.894	65710.6106
135.107	65639.34086
135.319	65561.37565
135.532	65588.86894
135.745	65554.50637
135.958	65607.21221
136.17	65680.70174
136.383	65584.28493
136.596	65632.45315
136.808	65604.91867
137.021	65543.06113
137.233	65634.74887
137.446	65577.41026
137.659	65616.38819
137.871	65467.63382
138.084	65607.21221
138.296	65568.24655
138.509	65602.62531
138.721	65637.04478
138.934	65584.28493
139.146	65570.53721
139.358	65630.15761
139.571	65508.75213
139.783	65513.32436
139.996	65588.86894
140.208	65533.90815
140.42	65540.77262
140.632	65568.24655
140.845	65620.97727
141.057	65680.70174
141.269	65627.86225
141.481	65602.62531
141.694	65648.52704
141.906	65581.99319
142.118	65699.10349
142.33	65575.11906
142.542	65655.41859
142.754	65563.66577
142.967	65687.60101
143.179	65641.63713
143.391	65529.33273
143.603	65620.97727
143.815	65517.89729
144.027	65598.03913
144.239	65490.47028
144.451	65588.86894
144.663	65600.33213
144.875	65524.75802
145.086	65492.7549
145.298	65545.34982
145.51	65623.27208
145.722	65527.04529
145.934	65616.38819
146.146	65620.97727
146.358	65604.91867
146.569	65655.41859
146.781	65570.53721
146.993	65653.12122
147.205	65506.46628
147.416	65607.21221
147.628	65598.03913
147.84	65556.79595
148.051	65604.91867
148.263	65570.53721
148.475	65643.93358
148.686	65609.50593
148.898	65533.90815
149.109	65517.89729
149.321	65646.23022
149.532	65524.75802
149.744	65581.99319
149.955	65559.08571
150.167	65614.09392
150.378	65600.33213
150.59	65630.15761
150.801	65669.20664
151.013	65655.41859
151.224	65517.89729
151.435	65604.91867
151.647	65517.89729
151.858	65572.82804
152.069	65604.91867
152.281	65607.21221
152.492	65577.41026
152.703	65611.79984
152.914	65476.7663
153.126	65572.82804
153.337	65577.41026
153.548	65673.80413
153.759	65568.24655
153.97	65653.12122
154.181	65637.04478
154.392	65547.63869
154.604	65664.60989
154.815	65627.86225
155.026	65561.37565
155.237	65604.91867
155.448	65497.32465
155.659	65579.70163
155.87	65586.57684
156.081	65565.95607
156.292	65634.74887
156.502	65666.90817
156.713	65563.66577
156.924	65540.77262
157.135	65584.28493
157.346	65600.33213
157.557	65563.66577
157.768	65630.15761
157.978	65671.50529
158.189	65575.11906
158.4	65637.04478
158.611	65575.11906
158.821	65524.75802
159.032	65614.09392
159.243	65545.34982
159.453	65593.45367
159.664	65593.45367
159.875	65554.50637
160.085	65630.15761
160.296	65554.50637
160.507	65614.09392
160.717	65639.34086
160.928	65552.21696
161.138	65756.68559
161.349	65611.79984
161.559	65678.40235
161.77	65609.50593
161.98	65632.45315
162.19	65559.08571
162.401	65614.09392
162.611	65547.63869
162.822	65620.97727
163.032	65614.09392
163.242	65627.86225
163.453	65547.63869
163.663	65650.82404
163.873	65575.11906
164.084	65637.04478
164.294	65648.52704
164.504	65598.03913
164.714	65579.70163
164.924	65581.99319
165.135	65632.45315
165.345	65552.21696
165.555	65591.16122
165.765	65538.48429
165.975	65547.63869
166.185	65595.74631
166.395	65623.27208
166.605	65664.60989
166.815	65653.12122
167.025	65611.79984
167.235	65513.32436
167.445	65710.6106
167.655	65575.11906
167.865	65604.91867
168.075	65588.86894
168.285	65604.91867
168.495	65586.57684
168.705	65522.47094
168.915	65497.32465
169.124	65561.37565
169.334	65563.66577
169.544	65568.24655
169.754	65604.91867
169.964	65559.08571
170.173	65533.90815
170.383	65579.70163
170.593	65586.57684
170.802	65543.06113
171.012	65646.23022
171.222	65609.50593
171.431	65650.82404
171.641	65616.38819
171.851	65671.50529
172.06	65630.15761
172.27	65632.45315
172.479	65565.95607
172.689	65627.86225
172.898	65575.11906
173.108	65618.68264
173.317	65552.21696
173.527	65657.71614
173.736	65662.31179
173.945	65588.86894
174.155	65549.92774
174.364	65552.21696
174.574	65588.86894
174.783	65600.33213
174.992	65538.48429
175.202	65598.03913
175.411	65540.77262
175.62	65627.86225
175.829	65641.63713
176.039	65577.41026
176.248	65547.63869
176.457	65600.33213
176.666	65515.61074
176.875	65632.45315
177.084	65561.37565
177.294	65639.34086
177.503	65653.12122
177.712	65511.03815
177.921	65634.74887
178.13	65602.62531
178.339	65689.90114
178.548	65623.27208
178.757	65591.16122
178.966	65552.21696
179.175	65565.95607
179.384	65609.50593
179.593	65586.57684
179.802	65664.60989
180.011	65591.16122
180.219	65611.79984
180.428	65581.99319
180.637	65581.99319
180.846	65552.21696
181.055	65584.28493
181.263	65609.50593
181.472	65506.46628
181.681	65639.34086
181.89	65575.11906
182.098	65508.75213
182.307	65616.38819
182.516	65577.41026
182.724	65593.45367
182.933	65556.79595
183.142	65680.70174
183.35	65577.41026
183.559	65584.28493
183.767	65600.33213
183.976	65630.15761
184.184	65643.93358
184.393	65570.53721
184.601	65630.15761
184.81	65511.03815
185.018	65634.74887
185.227	65572.82804
185.435	65653.12122
185.644	65556.79595
185.852	65699.10349
186.06	65554.50637
186.269	65554.50637
186.477	65549.92774
186.685	65598.03913
186.894	65508.75213
187.102	65593.45367
187.31	65524.75802
187.518	65598.03913
187.727	65683.00131
187.935	65660.01387
188.143	65600.33213
188.351	65568.24655
188.559	65660.01387
188.768	65522.47094
188.976	65543.06113
189.184	65559.08571
189.392	65556.79595
189.6	65565.95607
189.808	65485.90159
190.016	65627.86225
190.224	65616.38819
190.432	65586.57684
190.64	65591.16122
190.848	65581.99319
191.056	65533.90815
191.264	65572.82804
191.472	65598.03913
191.679	65614.09392
191.887	65607.21221
192.095	65689.90114
192.303	65570.53721
192.511	65620.97727
192.719	65696.80262
192.926	65540.77262
193.134	65696.80262
193.342	65625.56708
193.55	65604.91867
193.757	65598.03913
193.965	65575.11906
194.173	65559.08571
194.38	65664.60989
194.588	65639.34086
194.796	65618.68264
195.003	65543.06113
195.211	65639.34086
195.418	65620.97727
195.626	65687.60101
195.833	65581.99319
196.041	65538.48429
196.248	65598.03913
196.456	65540.77262
196.663	65497.32465
196.871	65627.86225
197.078	65579.70163
197.285	65604.91867
197.493	65579.70163
197.7	65460.78629
197.908	65572.82804
198.115	65614.09392
198.322	65584.28493
198.529	65655.41859
198.737	65673.80413
198.944	65579.70163
199.151	65671.50529
199.358	65637.04478
199.566	65715.21474
199.773	65506.46628
199.98	65602.62531
200.187	65632.45315
200.394	65595.74631
200.601	65474.48291
200.809	65685.30107
201.016	65572.82804
201.223	65565.95607
201.43	65680.70174
201.637	65623.27208
201.844	65627.86225
202.051	65701.40454
202.258	65577.41026
202.465	65618.68264
202.672	65689.90114
202.878	65595.74631
203.085	65623.27208
203.292	65577.41026
203.499	65547.63869
203.706	65595.74631
203.913	65593.45367
204.12	65655.41859
204.326	65637.04478
204.533	65648.52704
204.74	65538.48429
204.947	65586.57684
205.153	65598.03913
205.36	65581.99319
205.567	65687.60101
205.773	65680.70174
205.98	65559.08571
206.187	65602.62531
206.393	65593.45367
206.6	65616.38819
206.806	65657.71614
207.013	65531.62036
207.22	65538.48429
207.426	65648.52704
207.633	65588.86894
207.839	65522.47094
208.046	65554.50637
208.252	65556.79595
208.458	65552.21696
208.665	65579.70163
208.871	65618.68264
209.078	65511.03815
209.284	65602.62531
209.49	65614.09392
209.697	65616.38819
209.903	65655.41859
210.109	65620.97727
210.316	65554.50637
210.522	65634.74887
210.728	65572.82804
210.934	65376.46205
211.14	65616.38819
211.347	65676.10315
211.553	65561.37565
211.759	65584.28493
211.965	65538.48429
212.171	65561.37565
212.377	65527.04529
212.583	65588.86894
212.789	65625.56708
212.996	65575.11906
213.202	65540.77262
213.408	65581.99319
213.614	65588.86894
213.82	65637.04478
214.025	65620.97727
214.231	65666.90817
214.437	65625.56708
214.643	65522.47094
214.849	65586.57684
215.055	65593.45367
215.261	65650.82404
215.467	65584.28493
215.672	65664.60989
215.878	65524.75802
216.084	65643.93358
216.29	65584.28493
216.496	65508.75213
216.701	65552.21696
216.907	65646.23022
217.113	65586.57684
217.318	65517.89729
217.524	65630.15761
217.73	65641.63713
217.935	65609.50593
218.141	65556.79595
218.346	65575.11906
218.552	65607.21221
218.758	65575.11906
218.963	65563.66577
219.169	65572.82804
219.374	65584.28493
219.58	65584.28493
219.785	65604.91867
219.991	65531.62036
220.196	65685.30107
220.401	65618.68264
220.607	65588.86894
220.812	65504.18061
221.017	65593.45367
221.223	65540.77262
221.428	65515.61074
221.633	65536.19613
221.839	65584.28493
222.044	65643.93358
222.249	65575.11906
222.454	65568.24655
222.66	65570.53721
222.865	65616.38819
223.07	65469.91667
223.275	65591.16122
223.48	65559.08571
223.686	65643.93358
223.891	65673.80413
224.096	65666.90817
224.301	65483.6175
224.506	65639.34086
224.711	65545.34982
224.916	65625.56708
225.121	65618.68264
225.326	65616.38819
225.531	65643.93358
225.736	65623.27208
225.941	65653.12122
226.146	65602.62531
226.351	65572.82804
226.555	65570.53721
226.76	65565.95607
226.965	65669.20664
227.17	65611.79984
227.375	65634.74887
227.58	65618.68264
227.784	65549.92774
227.989	65708.30881
228.194	65630.15761
228.399	65559.08571
228.603	65650.82404
228.808	65625.56708
229.013	65536.19613
229.217	65588.86894
229.422	65641.63713
229.627	65602.62531
229.831	65623.27208
230.036	65554.50637
230.24	65581.99319
230.445	65559.08571
230.649	65581.99319
230.854	65572.82804
231.058	65611.79984
231.263	65600.33213
231.467	65568.24655
231.672	65607.21221
231.876	65588.86894
232.081	65538.48429
232.285	65561.37565
232.489	65559.08571
232.694	65627.86225
232.898	65538.48429
233.102	65495.03969
233.307	65581.99319
233.511	65604.91867
233.715	65556.79595
233.919	65533.90815
234.124	65648.52704
234.328	65687.60101
234.532	65584.28493
234.736	65545.34982
234.94	65639.34086
235.145	65579.70163
235.349	65568.24655
235.553	65474.48291
235.757	65483.6175
235.961	65641.63713
236.165	65634.74887
236.369	65549.92774
236.573	65552.21696
236.777	65648.52704
236.981	65575.11906
237.185	65511.03815
237.389	65609.50593
237.593	65588.86894
237.797	65559.08571
238.001	65554.50637
238.205	65570.53721
238.409	65625.56708
238.612	65630.15761
238.816	65467.63382
239.02	65593.45367
239.224	65607.21221
239.428	65556.79595
239.631	65579.70163
239.835	65563.66577
240.039	65593.45367
240.243	65543.06113
240.446	65517.89729
240.65	65643.93358
240.854	65742.85525
241.057	65568.24655
241.261	65643.93358
241.464	65664.60989
241.668	65540.77262
241.872	65630.15761
242.075	65591.16122
242.279	65579.70163
242.482	65627.86225
242.686	65618.68264
242.889	65527.04529
243.093	65630.15761
243.296	65533.90815
243.499	65591.16122
243.703	65593.45367
243.906	65653.12122
244.11	65563.66577
244.313	65598.03913
244.516	65572.82804
244.72	65533.90815
244.923	65655.41859
245.126	65499.60979
245.33	65570.53721
245.533	65646.23022
245.736	65572.82804
245.939	65609.50593
246.142	65577.41026
246.346	65625.56708
246.549	65671.50529
246.752	65630.15761
246.955	65607.21221
247.158	65565.95607
247.361	65611.79984
247.564	65552.21696
247.767	65511.03815
247.971	65593.45367
248.174	65561.37565
248.377	65611.79984
248.58	65671.50529
248.783	65637.04478
248.985	65598.03913
249.188	65611.79984
249.391	65563.66577
249.594	65593.45367
249.797	65641.63713
250	65513.32436
250.203	65609.50593
250.406	65616.38819
250.609	65643.93358
250.811	65620.97727
251.014	65620.97727
251.217	65653.12122
251.42	65637.04478
251.622	65469.91667
251.825	65533.90815
252.028	65620.97727
252.231	65625.56708
252.433	65639.34086
252.636	65531.62036
252.838	65559.08571
253.041	65595.74631
253.244	65545.34982
253.446	65495.03969
253.649	65581.99319
253.851	65538.48429
254.054	65616.38819
254.256	65529.33273
254.459	65620.97727
254.661	65563.66577
254.864	65641.63713
255.066	65437.97257
255.269	65600.33213
255.471	65565.95607
255.673	65549.92774
255.876	65620.97727
256.078	65565.95607
256.281	65577.41026
256.483	65593.45367
256.685	65648.52704
256.887	65584.28493
257.09	65575.11906
257.292	65639.34086
257.494	65549.92774
257.696	65609.50593
257.899	65639.34086
258.101	65497.32465
258.303	65570.53721
258.505	65669.20664
258.707	65602.62531
258.909	65630.15761
259.111	65689.90114
259.314	65570.53721
259.516	65620.97727
259.718	65533.90815
259.92	65579.70163
260.122	65607.21221
260.324	65620.97727
260.526	65513.32436
260.728	65577.41026
260.93	65559.08571
261.131	65676.10315
261.333	65634.74887
261.535	65598.03913
261.737	65625.56708
261.939	65552.21696
262.141	65588.86894
262.343	65545.34982
262.544	65563.66577
262.746	65563.66577
262.948	65646.23022
263.15	65595.74631
263.352	65524.75802
263.553	65593.45367
263.755	65646.23022
263.957	65520.18403
264.158	65556.79595
264.36	65579.70163
264.562	65543.06113
264.763	65630.15761
264.965	65561.37565
265.166	65614.09392
265.368	65517.89729
265.569	65623.27208
265.771	65618.68264
265.972	65554.50637
266.174	65623.27208
266.375	65609.50593
266.577	65595.74631
266.778	65563.66577
266.98	65593.45367
267.181	65643.93358
267.383	65664.60989
267.584	65515.61074
267.785	65600.33213
267.987	65620.97727
268.188	65669.20664
268.389	65554.50637
268.591	65664.60989
268.792	65662.31179
268.993	65565.95607
269.194	65620.97727
269.396	65529.33273
269.597	65581.99319
269.798	65632.45315
269.999	65579.70163
270.2	65662.31179
270.401	65524.75802
270.603	65623.27208
270.804	65639.34086
271.005	65641.63713
271.206	65593.45367
271.407	65565.95607
271.608	65520.18403
271.809	65598.03913
272.01	65584.28493
272.211	65611.79984
272.412	65549.92774
272.613	65543.06113
272.814	65646.23022
273.015	65618.68264
273.216	65639.34086
273.416	65614.09392
273.617	65538.48429
273.818	65563.66577
274.019	65607.21221
274.22	65547.63869
274.421	65577.41026
274.621	65614.09392
274.822	65579.70163
275.023	65584.28493
275.224	65591.16122
275.424	65673.80413
275.625	65706.0072
275.826	65600.33213
276.026	65643.93358
276.227	65607.21221
276.428	65559.08571
276.628	65552.21696
276.829	65554.50637
277.029	65607.21221
277.23	65584.28493
277.43	65561.37565
277.631	65517.89729
277.831	65676.10315
278.032	65653.12122
278.232	65607.21221
278.433	65623.27208
278.633	65515.61074
278.834	65625.56708
279.034	65554.50637
279.234	65524.75802
279.435	65595.74631
279.635	65575.11906
279.835	65602.62531
280.036	65513.32436
280.236	65687.60101
280.436	65623.27208
280.637	65595.74631
280.837	65529.33273
281.037	65600.33213
281.237	65600.33213
281.438	65614.09392
281.638	65623.27208
281.838	65618.68264
282.038	65618.68264
282.238	65595.74631
282.438	65604.91867
282.638	65602.62531
282.838	65620.97727
283.038	65575.11906
283.239	65616.38819
283.439	65598.03913
283.639	65501.89511
283.839	65632.45315
284.039	65572.82804
284.238	65598.03913
284.438	65554.50637
284.638	65648.52704
284.838	65625.56708
285.038	65627.86225
285.238	65650.82404
285.438	65591.16122
285.638	65588.86894
285.838	65593.45367
286.037	65559.08571
286.237	65632.45315
286.437	65639.34086
286.637	65616.38819
286.836	65614.09392
287.036	65664.60989
287.236	65561.37565
287.436	65648.52704
287.635	65584.28493
287.835	65593.45367
288.034	65598.03913
288.234	65504.18061
288.434	65570.53721
288.633	65607.21221
288.833	65641.63713
289.032	65696.80262
289.232	65584.28493
289.431	65584.28493
289.631	65620.97727
289.83	65515.61074
290.03	65643.93358
290.229	65632.45315
290.429	65703.70578
290.628	65533.90815
290.828	65666.90817
291.027	65689.90114
291.226	65616.38819
291.426	65577.41026
291.625	65460.78629
291.824	65611.79984
292.024	65611.79984
292.223	65643.93358
292.422	65602.62531
292.621	65620.97727
292.821	65568.24655
293.02	65607.21221
293.219	65536.19613
293.418	65641.63713
293.617	65547.63869
293.817	65634.74887
294.016	65506.46628
294.215	65538.48429
294.414	65680.70174
294.613	65616.38819
294.812	65602.62531
295.011	65630.15761
295.21	65579.70163
295.409	65669.20664
295.608	65715.21474
295.807	65634.74887
296.006	65570.53721
296.205	65604.91867
296.404	65469.91667
296.603	65623.27208
296.802	65508.75213
297.001	65632.45315
297.2	65630.15761
297.398	65648.52704
297.597	65536.19613
297.796	65673.80413
297.995	65657.71614
298.194	65554.50637
298.392	65618.68264
298.591	65611.79984
298.79	65655.41859
298.988	65623.27208
299.187	65618.68264
299.386	65588.86894
299.585	65607.21221
299.783	65591.16122
299.982	65527.04529
300.18	65625.56708
300.379	65614.09392
300.578	65616.38819
300.776	65673.80413
300.975	65579.70163
301.173	65522.47094
301.372	65607.21221
301.57	65625.56708
301.769	65630.15761
301.967	65559.08571
302.166	65607.21221
302.364	65650.82404
302.562	65602.62531
302.761	65556.79595
302.959	65611.79984
303.157	65565.95607
303.356	65639.34086
303.554	65547.63869
303.752	65607.21221
303.951	65572.82804
304.149	65485.90159
304.347	65579.70163
304.546	65549.92774
304.744	65586.57684
304.942	65570.53721
305.14	65639.34086
305.338	65664.60989
305.536	65616.38819
305.735	65618.68264
305.933	65625.56708
306.131	65634.74887
306.329	65547.63869
306.527	65664.60989
306.725	65611.79984
306.923	65559.08571
307.121	65501.89511
307.319	65637.04478
307.517	65639.34086
307.715	65588.86894
307.913	65479.04986
308.111	65565.95607
308.309	65581.99319
308.507	65614.09392
308.705	65602.62531
308.903	65657.71614
309.1	65538.48429
309.298	65543.06113
309.496	65584.28493
309.694	65620.97727
309.892	65646.23022
310.089	65653.12122
310.287	65602.62531
310.485	65632.45315
310.683	65588.86894
310.88	65607.21221
311.078	65614.09392
311.276	65549.92774
311.473	65600.33213
311.671	65591.16122
311.869	65547.63869
312.066	65598.03913
312.264	65595.74631
312.461	65517.89729
312.659	65538.48429
312.856	65549.92774
313.054	65627.86225
313.251	65623.27208
313.449	65536.19613
313.646	65604.91867
313.844	65648.52704
314.041	65604.91867
314.239	65533.90815
314.436	65524.75802
314.634	65492.7549
314.831	65549.92774
315.028	65671.50529
315.226	65604.91867
315.423	65533.90815
315.62	65639.34086
315.817	65586.57684
316.015	65479.04986
316.212	65634.74887
316.409	65554.50637
316.606	65570.53721
316.804	65616.38819
317.001	65650.82404
317.198	65552.21696
317.395	65552.21696
317.592	65552.21696
317.789	65602.62531
317.987	65579.70163
318.184	65632.45315
318.381	65669.20664
318.578	65554.50637
318.775	65664.60989
318.972	65660.01387
319.169	65657.71614
319.366	65549.92774
319.563	65586.57684
319.76	65625.56708
319.957	65616.38819
320.154	65630.15761
320.351	65547.63869
320.547	65570.53721
320.744	65609.50593
320.941	65488.18585
321.138	65602.62531
321.335	65588.86894
321.532	65637.04478
321.728	65556.79595
321.925	65655.41859
322.122	65476.7663
322.319	65703.70578
322.515	65547.63869
322.712	65561.37565
322.909	65673.80413
323.105	65678.40235
323.302	65538.48429
323.499	65517.89729
323.695	65565.95607
323.892	65595.74631
324.089	65552.21696
324.285	65618.68264
324.482	65627.86225
324.678	65678.40235
324.875	65632.45315
325.071	65581.99319
325.268	65586.57684
325.464	65611.79984
325.661	65591.16122
325.857	65604.91867
326.054	65639.34086
326.25	65565.95607
326.446	65563.66577
326.643	65584.28493
326.839	65607.21221
327.035	65687.60101
327.232	65538.48429
327.428	65683.00131
327.624	65676.10315
327.821	65593.45367
328.017	65653.12122
328.213	65630.15761
328.409	65593.45367
328.606	65572.82804
328.802	65575.11906
328.998	65609.50593
329.194	65671.50529
329.39	65549.92774
329.586	65593.45367
329.783	65554.50637
329.979	65581.99319
330.175	65611.79984
330.371	65593.45367
330.567	65609.50593
330.763	65581.99319
330.959	65646.23022
331.155	65618.68264
331.351	65627.86225
331.547	65563.66577
331.743	65703.70578
331.939	65600.33213
332.135	65627.86225
332.33	65527.04529
332.526	65591.16122
332.722	65575.11906
332.918	65543.06113
333.114	65646.23022
333.31	65490.47028
333.506	65517.89729
333.701	65595.74631
333.897	65706.0072
334.093	65552.21696
334.289	65657.71614
334.484	65492.7549
334.68	65508.75213
334.876	65536.19613
335.071	65602.62531
335.267	65531.62036
335.463	65614.09392
335.658	65611.79984
335.854	65722.12235
336.049	65598.03913
336.245	65627.86225
336.441	65623.27208
336.636	65575.11906
336.832	65556.79595
337.027	65474.48291
337.223	65662.31179
337.418	65520.18403
337.613	65653.12122
337.809	65570.53721
338.004	65646.23022
338.2	65588.86894
338.395	65639.34086
338.591	65545.34982
338.786	65653.12122
338.981	65648.52704
339.177	65657.71614
339.372	65584.28493
339.567	65524.75802
339.762	65556.79595
339.958	65724.42526
340.153	65683.00131
340.348	65054.97361
340.543	65604.91867
340.739	65648.52704
340.934	65618.68264
341.129	65565.95607
341.324	65565.95607
341.519	65673.80413
341.714	65738.24663
341.909	65653.12122
342.104	65593.45367
342.299	65602.62531
342.495	65625.56708
342.69	65643.93358
342.885	65630.15761
343.08	65344.61696
343.275	65511.03815
343.469	65614.09392
343.664	65559.08571
343.859	65602.62531
344.054	65664.60989
344.249	65646.23022
344.444	65591.16122
344.639	65625.56708
344.834	65650.82404
345.029	65598.03913
345.223	65572.82804
345.418	65653.12122
345.613	65584.28493
345.808	65602.62531
346.003	65607.21221
346.197	65602.62531
346.392	65586.57684
346.587	65490.47028
346.781	65616.38819
346.976	65575.11906
347.171	65520.18403
347.365	65625.56708
347.56	65623.27208
347.755	65545.34982
347.949	65620.97727
348.144	65650.82404
348.338	65588.86894
348.533	65584.28493
348.727	65634.74887
348.922	65552.21696
349.116	65666.90817
349.311	65595.74631
349.505	65666.90817
349.7	65650.82404
349.894	65639.34086
350.089	65575.11906
350.283	65609.50593
350.477	65593.45367
350.672	65611.79984
350.866	65533.90815
351.06	65588.86894
351.255	65593.45367
351.449	65598.03913
351.643	65598.03913
351.837	65554.50637
352.032	65694.50194
352.226	65643.93358
352.42	65648.52704
352.614	65531.62036
352.809	65634.74887
353.003	65591.16122
353.197	65577.41026
353.391	65614.09392
353.585	65579.70163
353.779	65676.10315
353.973	65531.62036
354.167	65568.24655
354.361	65655.41859
354.555	65543.06113
354.749	65611.79984
354.943	65634.74887
355.137	65570.53721
355.331	65618.68264
355.525	65632.45315
355.719	65570.53721
355.913	65609.50593
356.107	65581.99319
356.301	65611.79984
356.495	65607.21221
356.689	65598.03913
356.883	65570.53721
357.076	65666.90817
357.27	65536.19613
357.464	65632.45315
357.658	65533.90815
357.852	65604.91867
358.045	65572.82804
358.239	65646.23022
358.433	65620.97727
358.626	65632.45315
358.82	65604.91867
359.014	65584.28493
359.207	65593.45367
359.401	65685.30107
359.595	65572.82804
359.788	65625.56708
359.982	65598.03913
360.175	65563.66577
360.369	65620.97727
360.563	65593.45367
360.756	65604.91867
360.95	65581.99319
361.143	65692.20145
361.336	65742.85525
361.53	65648.52704
361.723	65634.74887
361.917	65577.41026
362.11	65637.04478
362.304	65611.79984
362.497	65602.62531
362.69	65476.7663
362.884	65586.57684
363.077	65625.56708
363.27	65618.68264
363.464	65593.45367
363.657	65634.74887
363.85	65552.21696
364.043	65620.97727
364.237	65593.45367
364.43	65565.95607
364.623	65561.37565
364.816	65650.82404
365.009	65540.77262
365.202	65625.56708
365.396	65524.75802
365.589	65586.57684
365.782	65586.57684
365.975	65666.90817
366.168	65556.79595
366.361	65520.18403
366.554	65602.62531
366.747	65634.74887
366.94	65568.24655
367.133	65607.21221
367.326	65618.68264
367.519	65620.97727
367.712	65729.03164
367.905	65616.38819
368.098	65641.63713
368.291	65499.60979
368.484	65602.62531
368.676	65572.82804
368.869	65673.80413
369.062	65614.09392
369.255	65598.03913
369.448	65561.37565
369.64	65586.57684
369.833	65625.56708
370.026	65552.21696
370.219	65669.20664
370.411	65497.32465
370.604	65683.00131
370.797	65586.57684
370.989	65559.08571
371.182	65676.10315
371.375	65547.63869
371.567	65577.41026
371.76	65609.50593
371.952	65678.40235
372.145	65581.99319
372.338	65575.11906
372.53	65584.28493
372.723	65662.31179
372.915	65609.50593
373.108	65637.04478
373.3	65570.53721
373.493	65563.66577
373.685	65561.37565
373.877	65655.41859
374.07	65545.34982
374.262	65536.19613
374.455	65646.23022
374.647	65703.70578
374.839	65538.48429
375.032	65593.45367
375.224	65593.45367
375.416	65653.12122
375.609	65156.49628
375.801	65600.33213
375.993	65646.23022
376.185	65657.71614
376.378	65609.50593
376.57	65588.86894
376.762	65584.28493
376.954	65570.53721
377.146	65556.79595
377.338	65648.52704
377.53	65639.34086
377.723	65554.50637
377.915	65643.93358
378.107	65602.62531
378.299	65634.74887
378.491	65630.15761
378.683	65584.28493
378.875	65625.56708
379.067	65536.19613
379.259	65563.66577
379.451	65611.79984
379.643	65547.63869
379.835	65577.41026
380.027	65531.62036
380.219	65643.93358
380.41	65598.03913
380.602	65591.16122
380.794	65689.90114
380.986	65634.74887
381.178	65604.91867
381.37	65611.79984
381.561	65595.74631
381.753	65513.32436
381.945	65527.04529
382.137	65593.45367
382.328	65623.27208
382.52	65634.74887
382.712	65627.86225
382.903	65531.62036
383.095	65614.09392
383.287	65660.01387
383.478	65572.82804
383.67	65632.45315
383.862	65591.16122
384.053	65584.28493
384.245	65630.15761
384.436	65561.37565
384.628	65588.86894
384.819	65616.38819
385.011	65556.79595
385.202	65609.50593
385.394	65630.15761
385.585	65504.18061
385.777	65625.56708
385.968	65666.90817
386.159	65602.62531
386.351	65595.74631
386.542	65568.24655
386.734	65520.18403
386.925	65620.97727
387.116	65579.70163
387.308	65584.28493
387.499	65646.23022
387.69	65561.37565
387.881	65520.18403
388.073	65595.74631
388.264	65593.45367
388.455	65680.70174
388.646	65547.63869
388.837	65565.95607
389.029	65588.86894
389.22	65614.09392
389.411	65634.74887
389.602	65591.16122
389.793	65625.56708
389.984	65604.91867
390.175	65575.11906
390.366	65561.37565
390.557	65657.71614
390.748	65598.03913
390.939	65673.80413
391.13	65620.97727
391.321	65584.28493
391.512	65616.38819
391.703	65602.62531
391.894	65630.15761
392.085	65653.12122
392.276	65643.93358
392.467	65657.71614
392.658	65639.34086
392.849	65593.45367
393.039	65623.27208
393.23	65607.21221
393.421	65581.99319
393.612	65598.03913
393.803	65604.91867
393.993	65504.18061
394.184	65568.24655
394.375	65655.41859
394.566	65593.45367
394.756	65581.99319
394.947	65545.34982
395.138	65627.86225
395.328	65531.62036
395.519	65552.21696
395.709	65657.71614
395.9	65499.60979
396.091	65627.86225
396.281	65630.15761
396.472	65623.27208
396.662	65648.52704
396.853	65639.34086
397.043	65620.97727
397.234	65625.56708
397.424	65579.70163
397.615	65579.70163
397.805	65588.86894
397.996	65678.40235
398.186	65543.06113
398.376	65524.75802
398.567	65637.04478
398.757	65607.21221
398.947	65738.24663
399.138	65554.50637
399.328	65543.06113
399.518	65660.01387
399.709	65689.90114
399.899	65602.62531
400.089	65639.34086
400.279	65593.45367
400.47	65600.33213
400.66	65598.03913
400.85	65527.04529
401.04	65563.66577
401.23	65538.48429
401.421	65577.41026
401.611	65620.97727
401.801	65561.37565
401.991	65593.45367
402.181	65611.79984
402.371	65579.70163
402.561	65531.62036
402.751	65614.09392
402.941	65565.95607
403.131	65524.75802
403.321	65634.74887
403.511	65584.28493
403.701	65554.50637
403.891	65593.45367
404.081	65591.16122
404.271	65641.63713
404.461	65522.47094
404.651	65650.82404
404.84	65572.82804
405.03	65563.66577
405.22	65639.34086
405.41	65627.86225
405.6	65540.77262
405.789	65545.34982
405.979	65529.33273
406.169	65669.20664
406.359	65602.62531
406.548	65653.12122
406.738	65653.12122
406.928	65527.04529
407.118	65561.37565
407.307	65547.63869
407.497	65595.74631
407.686	65538.48429
407.876	65646.23022
408.066	65625.56708
408.255	65634.74887
408.445	65627.86225
408.634	65554.50637
408.824	65575.11906
409.013	65618.68264
409.203	65540.77262
409.392	65575.11906
409.582	65579.70163
409.771	65673.80413
409.961	65632.45315
410.15	65561.37565
410.34	65572.82804
410.529	65648.52704
410.718	65588.86894
410.908	65460.78629
411.097	65648.52704
411.286	65632.45315
411.476	65662.31179
411.665	65623.27208
411.854	65614.09392
412.044	65657.71614
412.233	65572.82804
412.422	65572.82804
412.611	65591.16122
412.8	65549.92774
412.99	65637.04478
413.179	65556.79595
413.368	65630.15761
413.557	65655.41859
413.746	65607.21221
413.935	65630.15761
414.124	65676.10315
414.313	65540.77262
414.503	65575.11906
414.692	65632.45315
414.881	65520.18403
415.07	65536.19613
415.259	65609.50593
415.448	65533.90815
415.637	65591.16122
415.826	65572.82804
416.015	65664.60989
416.203	65609.50593
416.392	65559.08571
416.581	65620.97727
416.77	65579.70163
416.959	65568.24655
417.148	65627.86225
417.337	65639.34086
417.525	65584.28493
417.714	65565.95607
417.903	65643.93358
418.092	65639.34086
418.281	65572.82804
418.469	65581.99319
418.658	65586.57684
418.847	65616.38819
419.035	65650.82404
419.224	65664.60989
419.413	65641.63713
419.601	65584.28493
419.79	65673.80413
419.979	65609.50593
420.167	65643.93358
420.356	65607.21221
420.544	65570.53721
420.733	65639.34086
420.921	65618.68264
421.11	65570.53721
421.299	65556.79595
421.487	65600.33213
421.675	65595.74631
421.864	65604.91867
422.052	65623.27208
422.241	65504.18061
422.429	65616.38819
422.618	65607.21221
422.806	65584.28493
422.994	65616.38819
423.183	65561.37565
423.371	65616.38819
423.559	65575.11906
423.748	65547.63869
423.936	65620.97727
424.124	65706.0072
424.312	65641.63713
424.501	65584.28493
424.689	65607.21221
424.877	65604.91867
425.065	65602.62531
425.254	65620.97727
425.442	65458.50414
425.63	65527.04529
425.818	65517.89729
426.006	65607.21221
426.194	65513.32436
426.382	65531.62036
426.57	65563.66577
426.758	65579.70163
426.946	65616.38819
427.134	65554.50637
427.323	65632.45315
427.51	65602.62531
427.698	65588.86894
427.886	65559.08571
428.074	65522.47094
428.262	65703.70578
428.45	65593.45367
428.638	65586.57684
428.826	65561.37565
429.014	65634.74887
429.202	65708.30881
429.39	65671.50529
429.577	65531.62036
429.765	65533.90815
429.953	65529.33273
430.141	65604.91867
430.329	65561.37565
430.516	65630.15761
430.704	65469.91667
430.892	65618.68264
431.079	65692.20145
431.267	65533.90815
431.455	65669.20664
431.643	65522.47094
431.83	65570.53721
432.018	65559.08571
432.205	65618.68264
432.393	65666.90817
432.581	65602.62531
432.768	65533.90815
432.956	65538.48429
433.143	65579.70163
433.331	65552.21696
433.518	65618.68264
433.706	65600.33213
433.893	65492.7549
434.081	65625.56708
434.268	65508.75213
434.456	65641.63713
434.643	65630.15761
434.83	65543.06113
435.018	65543.06113
435.205	65625.56708
435.392	65625.56708
435.58	65699.10349
435.767	65540.77262
435.954	65595.74631
436.142	65533.90815
436.329	65634.74887
436.516	65616.38819
436.703	65559.08571
436.891	65520.18403
437.078	65545.34982
437.265	65540.77262
437.452	65549.92774
437.639	65584.28493
437.827	65565.95607
438.014	65547.63869
438.201	65600.33213
438.388	65543.06113
438.575	65593.45367
438.762	65595.74631
438.949	65609.50593
439.136	65554.50637
439.323	65501.89511
439.51	65602.62531
439.697	65524.75802
439.884	65529.33273
440.071	65554.50637
440.258	65527.04529
440.445	65538.48429
440.632	65344.61696
440.819	65547.63869
441.006	65476.7663
441.193	65561.37565
441.38	65524.75802
441.566	65586.57684
441.753	65595.74631
441.94	65529.33273
442.127	65593.45367
442.314	65513.32436
442.5	65490.47028
442.687	65506.46628
442.874	65533.90815
443.061	65540.77262
443.247	65524.75802
443.434	65435.69215
443.621	65602.62531
443.807	65547.63869
443.994	65424.29268
444.181	65561.37565
444.367	65591.16122
444.554	65506.46628
444.74	65531.62036
444.927	65561.37565
445.114	65504.18061
445.3	65378.73798
445.487	65456.22215
445.673	65472.19971
445.86	65501.89511
446.046	65527.04529
446.233	65490.47028
446.419	65522.47094
446.605	65417.45508
446.792	65422.01331
446.978	65561.37565
447.165	65497.32465
447.351	65522.47094
447.537	65536.19613
447.724	65545.34982
447.91	65431.13184
448.096	65456.22215
448.283	65392.39716
448.469	65495.03969
448.655	65479.04986
448.841	65426.57223
449.028	65465.35113
449.214	65451.65871
449.4	65428.85195
449.586	65449.37725
449.773	65422.01331
449.959	65449.37725
450.145	65335.5245
450.331	65465.35113
450.517	65495.03969
450.703	65374.18629
450.889	65467.63382
451.075	65412.89754
451.261	65337.79736
451.447	65330.97928
451.633	65410.61903
451.819	65399.22907
452.005	65328.70692
452.191	65396.95159
452.377	65378.73798
452.563	65355.98637
452.749	65360.53533
452.935	65335.5245
453.121	65296.91169
453.307	65326.43474
453.493	65269.68483
453.679	65310.53417
453.865	65281.02642
454.05	65253.8136
454.236	65299.18168
454.422	65365.08497
454.608	65321.89088
454.794	65342.34359
454.979	65351.4381
455.165	65319.6192
455.351	65260.61455
455.537	65265.14936
455.722	65190.40975
455.908	65271.95281
456.094	65208.51196
456.279	65188.14771
456.465	65154.23668
456.65	65249.28045
456.836	65217.56701
457.022	65206.24861
457.207	65222.09552
457.393	65174.5789
457.578	65226.62469
457.764	65129.39179
457.949	65201.7224
458.135	65140.6825
458.32	65276.48928
458.506	65228.88952
458.691	65192.67196
458.877	65172.31801
459.062	65237.9505
459.248	65244.74798
459.433	65120.36213
459.618	65097.7992
459.804	65194.93432
459.989	65102.31051
460.174	65097.7992
460.36	65124.87664
460.545	65138.42404
460.73	65154.23668
460.915	65142.94113
461.101	65151.97725
461.286	65120.36213
461.471	65138.42404
461.656	65251.54694
461.842	65097.7992
462.027	65127.13414
462.212	65097.7992
462.397	65079.76037
462.582	65111.33503
462.767	65009.9557
462.952	65206.24861
463.138	65091.03345
463.323	65014.45467
463.508	65111.33503
463.693	65070.74478
463.878	65102.31051
464.063	65012.20511
464.248	65048.21691
464.433	65048.21691
464.618	65048.21691
464.803	65043.71323
464.988	65045.96499
465.173	64978.48043
465.357	65018.95426
465.542	65023.45447
465.727	64926.83697
465.912	64976.23336
466.097	65032.45679
466.282	65032.45679
466.467	64976.23336
466.651	64931.32448
466.836	64931.32448
467.021	65088.77851
467.206	64982.97503
467.391	65041.46162
467.575	65003.20843
467.76	64994.21425
467.945	64908.89308
468.129	64940.30133
468.314	64902.16664
468.499	65018.95426
468.683	64890.95895
468.868	64971.7397
469.053	64960.50823
469.237	64944.79067
469.422	64890.95895
469.606	64947.03558
469.791	65009.9557
469.975	64929.08065
470.16	64956.01673
470.344	64920.10687
470.529	64991.9661
470.713	64823.79213
470.898	64985.22256
471.082	64947.03558
471.267	64994.21425
471.451	64978.48043
471.636	65095.54379
471.82	64985.22256
472.004	64855.11979
472.189	64973.98645
472.373	65048.21691
472.557	65030.20598
472.742	65016.70438
472.926	65025.70482
473.11	65036.95889
473.295	64942.54592
473.479	64951.52585
473.663	64960.50823
473.847	65023.45447
474.031	65014.45467
474.216	65009.9557
474.4	65034.70776
474.584	65027.95532
474.768	64989.7181
474.952	64924.59345
475.136	64922.35008
475.32	65054.97361
475.505	64942.54592
475.689	64888.71787
475.873	64962.75422
476.057	64953.77121
476.241	65000.95965
476.425	64926.83697
476.609	64890.95895
476.793	64967.24665
476.977	65036.95889
477.161	64931.32448
477.345	64913.37814
477.529	65030.20598
477.713	64875.27455
477.896	65012.20511
478.08	64857.3586
478.264	64924.59345
478.448	64949.28063
478.632	64879.75505
478.816	65088.77851
478.999	64895.44157
479.183	64978.48043
479.367	64947.03558
479.551	64783.55667
479.735	64886.47693
479.918	64922.35008
480.102	64855.11979
480.286	64893.20018
480.469	64960.50823
480.653	64857.3586
480.837	64873.03453
481.02	64899.9248
481.204	64859.59757
481.388	64830.50272
481.571	64732.2143
481.755	64868.55494
481.938	64859.59757
482.122	64895.44157
482.305	64799.19807
482.489	64716.60373
482.673	64761.22435
482.856	64834.9772
483.04	64828.26571
483.223	64819.31914
483.406	64839.45228
483.59	64834.9772
483.773	64779.08902
483.957	64859.59757
484.14	64750.06371
484.323	64714.37423
484.507	64756.75966
484.69	64790.25924
484.874	64861.83668
485.057	64808.13928
485.24	64763.45692
485.423	64899.9248
485.607	64741.13784
485.79	64799.19807
485.973	64754.52753
486.156	64689.85929
486.34	64705.45768
486.523	64687.63153
486.706	64747.83202
486.889	64819.31914
487.072	64714.37423
487.256	64694.31525
487.439	64754.52753
487.622	64696.54345
487.805	64750.06371
487.988	64721.06316
488.171	64689.85929
488.354	64678.72192
488.537	64743.36909
488.72	64696.54345
488.903	64672.04122
489.086	64725.52318
489.269	64685.40391
489.452	64680.9491
489.635	64629.76008
489.818	64520.95473
490.001	64758.99193
490.184	64718.83337
490.367	64716.60373
490.55	64620.86535
490.732	64514.30406
490.915	64658.6837
491.098	64620.86535
491.281	64745.60048
491.464	64672.04122
491.647	64698.77179
491.829	64705.45768
492.012	64614.19578
492.195	64560.88498
492.378	64649.78156
492.56	64505.43843
492.743	64527.60665
492.926	64498.79065
493.108	64638.65709
493.291	64618.64202
493.474	64481.06929
493.656	64496.575
493.839	64441.22818
494.022	64507.65463
494.204	64436.80411
494.387	64463.35668
494.569	64600.86048
494.752	64469.99789
494.934	64494.35949
495.117	64481.06929
495.299	64518.73771
495.482	64450.07795
495.664	64403.64079
495.847	64485.49881
496.029	64525.38921
496.212	64273.48888
496.394	64496.575
496.576	64450.07795
496.759	64543.13264
496.941	64366.09217
497.123	64211.88085
497.306	64518.73771
497.488	64432.38058
497.67	64501.00644
497.853	64494.35949
498.035	64368.29985
498.217	64302.12708
498.4	64372.7156
498.582	64523.1719
498.764	64447.86531
498.946	64377.13188
499.128	64390.38393
499.311	64419.11323
499.493	64512.08745
499.675	64379.34022
499.857	64341.81649
500.039	64304.33094
500.221	64341.81649
500.403	64321.96647
500.585	64220.67583
500.767	64282.29829
500.949	64321.96647
501.132	64346.22906
501.314	64379.34022
501.496	64238.27194
501.678	64452.29074
501.859	64308.73903
502.041	64299.92336
502.223	64299.92336
502.405	64332.99294
502.587	64236.07198
502.769	64260.27865
502.951	64258.0774
503.133	64286.70378
503.315	64341.81649
503.497	64315.35216
503.678	64306.53492
503.86	64394.80234
504.042	64189.90234
504.224	64220.67583
504.406	64280.09574
504.587	64335.19863
504.769	64288.90671
504.951	64264.68154
505.132	64372.7156
505.314	64306.53492
505.496	64269.08495
505.678	64335.19863
505.859	64317.5568
506.041	64269.08495
506.222	64284.50097
506.404	64280.09574
506.586	64293.31298
506.767	64229.47286
506.949	64337.40445
507.13	64286.70378
507.312	64295.51631
507.493	64154.76309
507.675	64271.28685
507.856	64269.08495
508.038	64359.46994
508.219	64337.40445
508.401	64335.19863
508.582	64240.47203
508.764	64277.89332
508.945	64244.8726
509.126	64332.99294
509.308	64315.35216
509.489	64299.92336
509.671	64357.2628
509.852	64264.68154
510.033	64357.2628
510.214	64330.78738
510.396	64370.50765
510.577	64436.80411
510.758	64253.67528
510.94	64264.68154
511.121	64299.92336
511.302	64302.12708
511.483	64337.40445
511.664	64273.48888
511.846	64385.96604
512.027	64304.33094
512.208	64368.29985
512.389	64355.05578
512.57	64271.28685
512.751	64308.73903
512.932	64291.10978
513.113	64200.89
513.294	64324.1715
513.476	64310.94328
513.657	64344.02271
513.838	64419.11323
514.019	64280.09574
514.2	64359.46994
514.381	64304.33094
514.561	64284.50097
514.742	64381.54869
514.923	64313.14765
515.104	64295.51631
515.285	64339.61041
515.466	64370.50765
515.647	64408.06081
515.828	64262.48003
516.009	64306.53492
516.189	64381.54869
516.37	64416.90248
516.551	64390.38393
516.732	64390.38393
516.913	64355.05578
517.093	64383.7573
517.274	64390.38393
517.455	64231.67244
517.636	64304.33094
517.816	64295.51631
517.997	64319.76157
518.178	64326.37666
518.358	64425.7463
518.539	64352.84891
518.72	64335.19863
518.9	64324.1715
519.081	64337.40445
519.261	64286.70378
519.442	64203.08792
519.622	64319.76157
519.803	64324.1715
519.984	64273.48888
520.164	64350.64216
520.345	64330.78738
520.525	64317.5568
520.705	64372.7156
520.886	64269.08495
521.066	64483.28398
521.247	64339.61041
521.427	64344.02271
521.608	64185.50816
521.788	64370.50765
521.968	64172.32867
522.149	64388.17492
522.329	64310.94328
522.509	64419.11323
522.69	64370.50765
522.87	64399.2213
523.05	64425.7463
523.231	64405.85073
523.411	64366.09217
523.591	64313.14765
523.771	64394.80234
523.951	64308.73903
524.132	64291.10978
524.312	64341.81649
524.492	64370.50765
524.672	64315.35216
524.852	64291.10978
525.032	64352.84891
525.213	64319.76157
525.393	64251.47442
525.573	64427.95759
525.753	64280.09574
525.933	64306.53492
526.113	64313.14765
526.293	64416.90248
526.473	64385.96604
526.653	64240.47203
526.833	64377.13188
527.013	64434.59228
527.193	64350.64216
527.373	64366.09217
527.553	64339.61041
527.733	64308.73903
527.913	64397.01175
528.092	64536.47781
528.272	64321.96647
528.452	64379.34022
528.632	64458.9299
528.812	64363.88463
528.992	64313.14765
529.171	64346.22906
529.351	64441.22818
529.531	64434.59228
529.711	64330.78738
529.89	64432.38058
530.07	64324.1715
530.25	64238.27194
530.43	64242.67225
530.609	64366.09217
530.789	64348.43554
530.969	64337.40445
531.148	64405.85073
531.328	64443.44042
531.507	64397.01175
531.687	64310.94328
531.867	64436.80411
532.046	64295.51631
532.226	64401.43098
532.405	64339.61041
532.585	64361.67722
532.764	64383.7573
532.944	64238.27194
533.123	64366.09217
533.303	64416.90248
533.482	64240.47203
533.662	64392.59307
533.841	64335.19863
534.021	64299.92336
534.2	64388.17492
534.379	64432.38058
534.559	64370.50765
534.738	64330.78738
534.917	64472.21189
535.097	64361.67722
535.276	64357.2628
535.455	64315.35216
535.635	64450.07795
535.814	64394.80234
535.993	64326.37666
536.172	64458.9299
536.352	64421.32412
536.531	64441.22818
536.71	64348.43554
536.889	64368.29985
537.068	64408.06081
537.248	64427.95759
537.427	64291.10978
537.606	64361.67722
537.785	64366.09217
537.964	64381.54869
538.143	64445.6528
538.322	64397.01175
538.501	64363.88463
538.68	64419.11323
538.859	64315.35216
539.038	64454.50365
539.217	64454.50365
539.396	64523.1719
539.575	64379.34022
539.754	64361.67722
539.933	64326.37666
540.112	64547.56989
540.291	64385.96604
540.47	64388.17492
540.649	64390.38393
540.828	64547.56989
541.007	64357.2628
541.186	64465.57028
541.364	64366.09217
541.543	64447.86531
541.722	64403.64079
541.901	64441.22818
542.08	64291.10978
542.258	64328.58196
542.437	64472.21189
542.616	64337.40445
542.795	64492.14411
542.973	64447.86531
543.152	64456.71671
543.331	64434.59228
543.509	64481.06929
543.688	64361.67722
543.867	64458.9299
544.045	64472.21189
544.224	64321.96647
544.402	64062.67509
544.581	64425.7463
544.76	64523.1719
544.938	64416.90248
545.117	64385.96604
545.295	64434.59228
545.474	64432.38058
545.652	64507.65463
545.831	64458.9299
546.009	64328.58196
546.188	64432.38058
546.366	64445.6528
546.544	64423.53514
546.723	64419.11323
546.901	64412.48138
547.08	64355.05578
547.258	64465.57028
547.436	64463.35668
547.615	64512.08745
547.793	64439.01608
547.971	64421.32412
548.15	64436.80411
548.328	64383.7573
548.506	64321.96647
548.684	64295.51631
548.863	64456.71671
549.041	64487.71377
549.219	64545.3512
549.397	64408.06081
549.576	64458.9299
549.754	64416.90248
549.932	64443.44042
550.11	64485.49881
550.288	64520.95473
550.466	64607.5275
550.644	64383.7573
550.822	64481.06929
551.001	64520.95473
551.179	64574.2051
551.357	64509.87097
551.535	64452.29074
551.713	64512.08745
551.891	64516.52081
552.069	64560.88498
552.247	64520.95473
552.425	64556.44606
552.603	64556.44606
552.781	64534.25982
552.958	64565.32446
553.136	64543.13264
553.314	64658.6837
553.492	64614.19578
553.67	64640.8817
553.848	64654.23235
554.026	64752.29555
554.204	64734.44497
554.381	64674.26798
554.559	64736.67578
554.737	64810.37496
554.915	64743.36909
555.092	64701.00027
555.27	64774.62197
555.448	64736.67578
555.626	64788.0249
555.803	64875.27455
555.981	64703.2289
556.159	64832.73989
556.336	64841.69005
556.514	64904.40863
556.692	64859.59757
556.869	64832.73989
557.047	64828.26571
557.224	64859.59757
557.402	64875.27455
557.58	64799.19807
557.757	64913.37814
557.935	65012.20511
558.112	64917.86381
558.29	64906.65078
558.467	65012.20511
558.645	65014.45467
558.822	65027.95532
559	65000.95965
559.177	64976.23336
559.354	64951.52585
559.532	64958.26241
559.709	64989.7181
559.887	64951.52585
560.064	65052.72121
560.241	64929.08065
560.419	64949.28063
560.596	64929.08065
560.773	64922.35008
560.951	64904.40863
561.128	64788.0249
561.305	65016.70438
561.482	64958.26241
561.66	64906.65078
561.837	64902.16664
562.014	64951.52585
562.191	65025.70482
562.368	64971.7397
562.546	64904.40863
562.723	65005.45736
562.9	64973.98645
563.077	64899.9248
563.254	64996.46256
563.431	64965.00035
563.608	64877.51473
563.785	64994.21425
563.962	64933.56846
564.139	65023.45447
564.317	64906.65078
564.494	65039.21018
564.671	64841.69005
564.848	64938.05688
565.025	64989.7181
565.201	65016.70438
565.378	64947.03558
565.555	64944.79067
565.732	64980.72765
565.909	64989.7181
566.086	64971.7397
566.263	65021.20429
566.44	64976.23336
566.617	65016.70438
566.794	64938.05688
566.97	65000.95965
567.147	65070.74478
567.324	64973.98645
567.501	65034.70776
567.678	64971.7397
567.854	64994.21425
568.031	65104.5664
568.208	64973.98645
568.384	65039.21018
568.561	65014.45467
568.738	65039.21018
568.915	65016.70438
569.091	65091.03345
569.268	65050.46898
569.444	65100.05477
569.621	65070.74478
569.798	65097.7992
569.974	65041.46162
570.151	65036.95889
570.327	65052.72121
570.504	65025.70482
570.681	65120.36213
570.857	65088.77851
571.034	65097.7992
571.21	65048.21691
571.387	65194.93432
571.563	65167.7967
571.739	65005.45736
571.916	65217.56701
572.092	65142.94113
572.269	65091.03345
572.445	65104.5664
572.622	65151.97725
572.798	65091.03345
572.974	65145.19992
573.151	65201.7224
573.327	65142.94113
573.503	65041.46162
573.68	65203.98543
573.856	65197.19685
574.032	65201.7224
574.208	65082.01467
574.385	65106.82245
574.561	65219.83118
574.737	65192.67196
574.913	65088.77851
575.089	65192.67196
575.266	65197.19685
575.442	65208.51196
575.618	65048.21691
575.794	65170.05727
575.97	65179.10119
576.146	65109.07866
576.322	65174.5789
576.499	65066.23794
576.675	65084.26912
576.851	65086.52374
577.027	65009.9557
577.203	65142.94113
577.379	65183.62412
577.555	65138.42404
577.731	65093.28854
577.907	64767.9225
578.083	65048.21691
578.259	65120.36213
578.435	65095.54379
578.611	64976.23336
578.786	64991.9661
578.962	65043.71323
579.138	65156.49628
579.314	65048.21691
579.49	65120.36213
579.666	65023.45447
579.842	65100.05477
580.017	65100.05477
580.193	65086.52374
580.369	65034.70776
580.545	65059.47886
580.72	64965.00035
580.896	65095.54379
581.072	64985.22256
581.248	65032.45679
581.423	64960.50823
581.599	65063.98476
581.775	65023.45447
581.95	65025.70482
582.126	65052.72121
582.302	64956.01673
582.477	65018.95426
582.653	65079.76037
582.829	65063.98476
583.004	65154.23668
583.18	65050.46898
583.355	65088.77851
583.531	65018.95426
583.706	64996.46256
583.882	65088.77851
584.057	65172.31801
584.233	65034.70776
584.408	64935.8126
584.584	65054.97361
584.759	65118.10511
584.935	65118.10511
585.11	65104.5664
585.285	65138.42404
585.461	65210.77548
585.636	65111.33503
585.812	65129.39179
585.987	65197.19685
586.162	65183.62412
586.338	65124.87664
586.513	65219.83118
586.688	65281.02642
586.863	65158.75604
587.039	65215.303
587.214	65190.40975
587.389	65185.88584
587.564	65226.62469
587.74	65183.62412
587.915	65351.4381
588.09	65296.91169
588.265	65233.41968
588.44	65310.53417
588.615	65294.64186
588.791	65283.29524
588.966	65337.79736
589.141	65355.98637
589.316	65276.48928
589.491	65290.10271
589.666	65260.61455
589.841	65224.36002
590.016	65335.5245
590.191	65251.54694
590.366	65383.29035
590.541	65401.50672
590.716	65351.4381
590.891	65328.70692
591.066	65424.29268
591.241	65399.22907
591.416	65417.45508
591.591	65406.06253
591.766	65406.06253
591.941	65520.18403
592.116	65533.90815
592.29	65415.17622
592.465	65463.06863
592.64	65577.41026
592.815	65511.03815
592.99	65561.37565
593.165	65520.18403
593.339	65543.06113
593.514	65513.32436
593.689	65435.69215
593.864	65517.89729
594.038	65545.34982
594.213	65437.97257
594.388	65520.18403
594.562	65497.32465
594.737	65435.69215
594.912	65515.61074
595.086	65572.82804
595.261	65524.75802
595.436	65453.94035
595.61	65474.48291
595.785	65467.63382
595.959	65463.06863
596.134	65504.18061
596.309	65501.89511
596.483	65508.75213
596.658	65497.32465
596.832	65524.75802
597.007	65399.22907
597.181	65556.79595
597.356	65472.19971
597.53	65561.37565
597.704	65533.90815
597.879	65492.7549
598.053	65497.32465
598.228	65410.61903
598.402	65408.34069
598.576	65508.75213
598.751	65424.29268
598.925	65483.6175
599.1	65483.6175
599.274	65529.33273
599.448	65495.03969
599.622	65401.50672
599.797	65479.04986
599.971	65479.04986
600.145	65355.98637
600.32	65451.65871
600.494	65476.7663
600.668	65428.85195
600.842	65417.45508
601.016	65527.04529
601.191	65428.85195
601.365	65219.83118
601.539	65449.37725
601.713	65483.6175
601.887	65392.39716
602.061	65508.75213
602.235	65431.13184
602.409	65501.89511
602.583	65440.25316
602.758	65563.66577
602.932	65501.89511
603.106	65565.95607
603.28	65515.61074
603.454	65469.91667
603.628	65424.29268
603.802	65520.18403
603.976	65504.18061
604.149	65485.90159
604.323	65440.25316
604.497	65517.89729
604.671	65435.69215
604.845	65469.91667
605.019	65508.75213
605.193	65520.18403
605.367	65433.41191
605.541	65465.35113
605.714	65410.61903
605.888	65419.73411
606.062	65490.47028
606.236	65593.45367
606.41	65376.46205
606.583	65501.89511
606.757	65524.75802
606.931	65469.91667
607.105	65504.18061
607.278	65508.75213
607.452	65554.50637
607.626	65419.73411
607.799	65504.18061
607.973	65522.47094
608.147	65463.06863
608.32	65520.18403
608.494	65474.48291
608.668	65501.89511
608.841	65401.50672
609.015	65412.89754
609.188	65465.35113
609.362	65575.11906
609.535	65488.18585
609.709	65513.32436
609.882	65476.7663
610.056	65449.37725
610.229	65479.04986
610.403	65481.33359
610.576	65376.46205
610.75	65449.37725
610.923	65479.04986
611.097	65536.19613
611.27	65403.78454
611.443	65469.91667
611.617	65570.53721
611.79	65575.11906
611.963	65467.63382
612.137	65479.04986
612.31	65474.48291
612.483	65501.89511
612.657	65485.90159
612.83	65543.06113
613.003	65540.77262
613.177	65501.89511
613.35	65520.18403
613.523	65479.04986
613.696	65456.22215
613.869	65593.45367
614.043	65431.13184
614.216	65479.04986
614.389	65517.89729
614.562	65440.25316
614.735	65495.03969
614.908	65504.18061
615.082	65437.97257
615.255	65483.6175
615.428	65447.09597
615.601	65524.75802
615.774	65497.32465
615.947	65451.65871
616.12	65355.98637
616.293	65392.39716
616.466	65406.06253
616.639	65424.29268
616.812	65456.22215
616.985	65374.18629
617.158	65453.94035
617.331	65472.19971
617.504	65451.65871
617.677	65529.33273
617.85	65483.6175
618.022	65497.32465
618.195	65479.04986
618.368	65415.17622
618.541	65401.50672
618.714	65481.33359
618.887	65469.91667
619.059	65435.69215
619.232	65479.04986
619.405	65321.89088
619.578	65351.4381
619.751	65460.78629
619.923	65437.97257
620.096	65369.63529
620.269	65390.1202
620.441	65440.25316
620.614	65481.33359
620.787	65408.34069
620.96	65422.01331
621.132	65326.43474
621.305	65299.18168
621.477	65355.98637
621.65	65442.53392
621.823	65456.22215
621.995	65351.4381
622.168	65360.53533
622.34	65362.81006
622.513	65374.18629
622.685	65369.63529
622.858	65351.4381
623.03	65410.61903
623.203	65437.97257
623.375	65390.1202
623.548	65431.13184
623.72	65362.81006
623.893	65365.08497
624.065	65387.84341
624.238	65381.01408
624.41	65481.33359
624.582	65319.6192
624.755	65396.95159
624.927	65374.18629
625.1	65367.36004
625.272	65440.25316
625.444	65333.2518
625.617	65247.01413
625.789	65324.16272
625.961	65385.5668
626.133	65321.89088
626.306	65308.26334
626.478	65308.26334
626.65	65292.3722
626.822	65374.18629
626.995	65271.95281
627.167	65283.29524
627.339	65353.71215
627.511	65244.74798
627.683	65283.29524
627.855	65253.8136
628.027	65333.2518
628.2	65267.41701
628.372	65292.3722
628.544	65294.64186
628.716	65292.3722
628.888	65269.68483
629.06	65206.24861
629.232	65369.63529
629.404	65294.64186
629.576	65210.77548
629.748	65310.53417
629.92	65172.31801
630.092	65161.01596
630.264	65258.3474
630.436	65335.5245
630.608	65267.41701
630.78	65262.88187
630.952	65305.99267
631.124	65228.88952
631.295	65251.54694
631.467	65303.72217
631.639	65219.83118
631.811	65299.18168
631.983	65278.75777
632.155	65278.75777
632.326	65274.22097
632.498	65269.68483
632.67	65278.75777
632.842	65312.80518
633.014	65258.3474
633.185	65201.7224
633.357	65290.10271
633.529	65163.27605
633.7	65197.19685
633.872	65312.80518
634.044	65315.07635
634.215	65203.98543
634.387	65278.75777
634.559	65355.98637
634.73	65299.18168
634.902	65346.89051
635.074	65283.29524
635.245	65274.22097
635.417	65296.91169
635.588	65210.77548
635.76	65355.98637
635.931	65342.34359
636.103	65355.98637
636.274	65251.54694
636.446	65303.72217
636.617	65237.9505
636.789	65330.97928
636.96	65324.16272
637.132	65344.61696
637.303	65333.2518
637.474	65365.08497
637.646	65283.29524
637.817	65358.26077
637.989	65310.53417
638.16	65369.63529
638.331	65392.39716
638.503	65256.08042
638.674	65287.83339
638.845	65392.39716
639.017	65303.72217
639.188	65305.99267
639.359	65394.67429
639.53	65381.01408
639.702	65310.53417
639.873	65390.1202
640.044	65353.71215
640.215	65365.08497
640.387	65265.14936
640.558	65247.01413
640.729	65219.83118
640.9	65249.28045
641.071	65260.61455
641.242	65265.14936
641.413	65276.48928
641.585	65321.89088
641.756	65249.28045
641.927	65376.46205
642.098	65301.45184
642.269	65299.18168
642.44	65365.08497
642.611	65292.3722
642.782	65299.18168
642.953	65208.51196
643.124	65251.54694
643.295	65374.18629
643.466	65240.21616
643.637	65303.72217
643.808	65285.56423
643.979	65217.56701
644.15	65190.40975
644.32	65244.74798
644.491	65262.88187
644.662	65410.61903
644.833	65287.83339
645.004	65253.8136
645.175	65296.91169
645.346	65233.41968
645.516	65326.43474
645.687	65278.75777
645.858	65281.02642
646.029	65231.15452
646.199	65312.80518
646.37	65274.22097
646.541	65337.79736
646.712	65210.77548
646.882	65258.3474
647.053	65290.10271
647.224	65285.56423
647.394	65271.95281
647.565	65276.48928
647.736	65315.07635
647.906	65349.16422
648.077	65276.48928
648.248	65346.89051
648.418	65319.6192
648.589	65362.81006
648.759	65303.72217
648.93	65305.99267
649.1	65365.08497
649.271	65233.41968
649.441	65242.48199
649.612	65315.07635
649.782	65240.21616
649.953	65222.09552
650.123	65274.22097
650.294	65215.303
650.464	65256.08042
650.635	64962.75422
650.805	65278.75777
650.975	65151.97725
651.146	65315.07635
651.316	65269.68483
651.487	65299.18168
651.657	65301.45184
651.827	65233.41968
651.998	65355.98637
652.168	65242.48199
652.338	65305.99267
652.508	65371.9107
652.679	65294.64186
652.849	65215.303
653.019	65251.54694
653.189	65247.01413
653.36	65260.61455
653.53	65355.98637
653.7	65262.88187
653.87	65376.46205
654.04	65310.53417
654.211	65328.70692
654.381	65233.41968
654.551	65346.89051
654.721	65256.08042
654.891	65330.97928
655.061	65253.8136
655.231	65365.08497
655.401	65378.73798
655.571	65344.61696
655.741	65262.88187
655.911	65310.53417
656.081	65249.28045
656.251	65381.01408
656.421	65276.48928
656.591	65371.9107
656.761	65287.83339
656.931	65412.89754
657.101	65378.73798
657.271	65324.16272
657.441	65301.45184
657.611	65415.17622
657.781	65305.99267
657.951	65349.16422
658.121	65287.83339
658.291	65283.29524
658.46	65390.1202
658.63	65317.34769
658.8	65344.61696
658.97	65312.80518
659.14	65260.61455
659.309	65340.07039
659.479	65294.64186
659.649	65369.63529
659.819	65285.56423
659.988	65406.06253
660.158	65437.97257
660.328	65317.34769
660.497	65381.01408
660.667	65367.36004
660.837	65317.34769
661.006	65296.91169
661.176	65456.22215
661.346	65346.89051
661.515	65387.84341
661.685	65392.39716
661.854	65349.16422
662.024	65376.46205
662.194	65337.79736
662.363	65326.43474
662.533	65378.73798
662.702	65474.48291
662.872	65424.29268
663.041	65315.07635
663.211	65460.78629
663.38	65517.89729
663.55	65381.01408
663.719	65376.46205
663.889	65499.60979
664.058	65456.22215
664.227	65401.50672
664.397	65387.84341
664.566	65385.5668
664.735	65474.48291
664.905	65435.69215
665.074	65435.69215
665.244	65419.73411
665.413	65483.6175
665.582	65396.95159
665.751	65431.13184
665.921	65433.41191
666.09	65442.53392
666.259	65394.67429
666.428	65437.97257
666.598	65442.53392
666.767	65385.5668
666.936	65394.67429
667.105	65374.18629
667.275	65426.57223
667.444	65424.29268
667.613	65330.97928
667.782	65483.6175
667.951	65387.84341
668.12	65415.17622
668.289	65426.57223
668.458	65378.73798
668.628	65481.33359
668.797	65449.37725
668.966	65465.35113
669.135	65346.89051
669.304	65417.45508
669.473	65417.45508
669.642	65444.81486
669.811	65447.09597
669.98	65399.22907
670.149	65376.46205
670.318	65492.7549
670.487	65460.78629
670.656	65406.06253
670.824	65451.65871
670.993	65501.89511
671.162	65403.78454
671.331	65390.1202
671.5	65453.94035
671.669	65474.48291
671.838	65490.47028
672.007	65424.29268
672.175	65440.25316
672.344	65451.65871
672.513	65310.53417
672.682	65485.90159
672.85	65401.50672
673.019	65369.63529
673.188	65344.61696
673.357	65399.22907
673.525	65490.47028
673.694	65490.47028
673.863	65440.25316
674.032	65401.50672
674.2	65467.63382
674.369	65467.63382
674.537	65410.61903
674.706	65506.46628
674.875	65458.50414
675.043	65437.97257
675.212	65424.29268
675.381	65424.29268
675.549	65479.04986
675.718	65497.32465
675.886	65449.37725
676.055	65520.18403
676.223	65492.7549
676.392	65428.85195
676.56	65442.53392
676.729	65453.94035
676.897	65515.61074
677.066	65479.04986
677.234	65476.7663
677.403	65579.70163
677.571	65483.6175
677.739	65474.48291
677.908	65497.32465
678.076	65449.37725
678.244	65463.06863
678.413	65513.32436
678.581	65444.81486
678.75	65499.60979
678.918	65504.18061
679.086	65488.18585
679.254	65581.99319
679.423	65392.39716
679.591	65488.18585
679.759	65483.6175
679.928	65511.03815
680.096	65463.06863
680.264	65497.32465
680.432	65458.50414
680.6	65485.90159
680.769	65437.97257
680.937	65538.48429
681.105	65437.97257
681.273	65435.69215
681.441	65490.47028
681.609	65383.29035
681.777	65490.47028
681.945	65456.22215
682.114	65513.32436
682.282	65465.35113
682.45	65497.32465
682.618	65524.75802
682.786	65581.99319
682.954	65476.7663
683.122	65305.99267
683.29	65403.78454
683.458	65511.03815
683.626	65506.46628
683.794	65476.7663
683.962	65595.74631
684.13	65422.01331
684.298	65536.19613
684.465	65469.91667
684.633	65524.75802
684.801	65538.48429
684.969	65513.32436
685.137	65433.41191
685.305	65533.90815
685.473	65474.48291
685.64	65533.90815
685.808	65611.79984
685.976	65406.06253
686.144	65561.37565
686.312	65392.39716
686.479	65554.50637
686.647	65545.34982
686.815	65504.18061
686.983	65522.47094
687.15	65485.90159
687.318	65520.18403
687.486	65488.18585
687.653	65474.48291
687.821	65527.04529
687.989	65476.7663
688.156	65568.24655
688.324	65543.06113
688.492	65485.90159
688.659	65630.15761
688.827	65458.50414
688.994	65552.21696
689.162	65533.90815
689.329	65426.57223
689.497	65554.50637
689.665	65595.74631
689.832	65483.6175
690	65465.35113
690.167	65563.66577
690.335	65524.75802
690.502	65547.63869
690.669	65483.6175
690.837	65527.04529
691.004	65435.69215
691.172	65433.41191
691.339	65417.45508
691.507	65586.57684
691.674	65552.21696
691.841	65561.37565
692.009	65600.33213
692.176	65515.61074
692.343	65561.37565
692.511	65522.47094
692.678	65529.33273
692.845	65515.61074
693.013	65570.53721
693.18	65481.33359
693.347	65501.89511
693.514	65604.91867
693.682	65504.18061
693.849	65549.92774
694.016	65529.33273
694.183	65460.78629
694.35	65643.93358
694.518	65556.79595
694.685	65559.08571
694.852	65554.50637
695.019	65648.52704
695.186	65517.89729
695.353	65440.25316
695.52	65495.03969
695.687	65490.47028
695.855	65508.75213
696.022	65506.46628
696.189	65552.21696
696.356	65570.53721
696.523	65620.97727
696.69	65437.97257
696.857	65648.52704
697.024	65476.7663
697.191	65568.24655
697.358	65479.04986
697.525	65460.78629
697.692	65511.03815
697.858	65586.57684
698.025	65495.03969
698.192	65499.60979
698.359	65600.33213
698.526	65511.03815
698.693	65517.89729
698.86	65561.37565
699.027	65540.77262
699.193	65607.21221
699.36	65561.37565
699.527	65572.82804
699.694	65595.74631
699.861	65595.74631
700.027	65437.97257
700.194	65483.6175
700.361	65499.60979
700.528	65490.47028
700.694	65545.34982
700.861	65581.99319
701.028	65513.32436
701.195	65513.32436
701.361	65504.18061
701.528	65552.21696
701.694	65495.03969
701.861	65620.97727
702.028	65422.01331
702.194	65481.33359
702.361	65552.21696
702.528	65549.92774
702.694	65543.06113
702.861	65396.95159
703.027	65511.03815
703.194	65568.24655
703.36	65513.32436
703.527	65611.79984
703.693	65458.50414
703.86	65447.09597
704.026	65536.19613
704.193	65687.60101
704.359	65533.90815
704.526	65584.28493
